"success","timeout","failed_images","failed_audio","failed_video","trial_type","trial_index","time_elapsed","internal_node_id","rt","stimulus","response","value","item_width_mm","item_height_mm","item_width_px","px2mm","view_dist_mm","item_width_deg","px2deg","scale_factor","win_width_deg","win_height_deg","view_history","response_type","key_press","avg_frame_time","center_x","center_y","correct_response","correct","Image","word","condition","screen_id"
"true","false","[]","[]","[]","preload","0","794","0.0-0.0","","","","","","","","","","","","","","","","","","","","","","","","","",""
"","","","","","html-keyboard-response","1","8983","0.0-1.0","8188","
     <p>您好，欢迎参加本次实验。</p>
     <p>为充分保障您的权利，请确保您已经知晓并同意《参与实验同意书》以及《数据公开知情同意书》。</p>
     <p>如果您未见过上述内容，请咨询实验员。</p>
     <p>如果您选择继续实验，则表示您已经清楚两份知情同意书的内容并同意。</p>
     <p> <div style = ""color: green""><按任意键至下页></div> </p>
     "," ","","","","","","","","","","","","","","","","","","","","","","",""
"","","","","","html-keyboard-response","2","12773","0.0-2.0","3790","
     <p>本实验首先需要您填写一些基本个人信息。</p>
     <p> <div style = ""color: green""><按任意键至下页></div></p>
     "," ","","","","","","","","","","","","","","","","","","","","","","",""
"","","","","","call-function","3","12774","0.0-3.0-0.0","","","","","","","","","","","","","","","","","","","","","","","","","",""
"","","","","","survey-html-form","4","16527","0.0-3.0-1.0","3752","","{""Q0"":""12""}","","","","","","","","","","","","","","","","","","","","","","",""
"","","","","","html-button-response","5","17482","0.0-3.0-2.0","954","<p style = 'color : white'>您的性别</p>","0","","","","","","","","","","","","","","","","","","","","","","",""
"","","","","","survey-html-form","6","21302","0.0-3.0-3.0","3818","","{""Q0"":""2004""}","","","","","","","","","","","","","","","","","","","","","","",""
"","","","","","survey-html-form","7","24721","0.0-3.0-4.0","3418","","{""Q0"":""5""}","","","","","","","","","","","","","","","","","","","","","","",""
"","","","","","virtual-chinrest","8","244819","0.0-4.0","220097","","","","85.6","53.98","485.7593189030587","5.6746537945587745","503.62","9.715186378061174","50","0.8934465755182184","32.04","16.82","","","","","","","","","","","",""
"true","","","","","fullscreen","9","300378","0.0-5.0","","","","","","","","","","","","","","","","","","","","","","","","","",""
"","","","","","instructions","10","375869","0.0-6.0","75489","","","","","","","","","","","","","","[{""page_index"":0,""viewing_time"":16167},{""page_index"":1,""viewing_time"":52372},{""page_index"":2,""viewing_time"":3278},{""page_index"":3,""viewing_time"":3673}]","","","","","","","","","","",""
"","","","","","psychophysics","11","378379","0.0-7.0-0.0","null","","null","","","","","","","","","","","","","key","null","6.075365853658451","853.3333333333334","476","j","false","img/C_ambi40.png","朋友","prac",""
"","","","","","html-keyboard-response","12","378894","0.0-7.0-1.0","null","<span class='add_' style='color:yellow; font-size: 70px;'> 太慢! </span>","null","","","","","","","","","","","","","","","","","","","","","","","feedback_test"
"","","","","","psychophysics","13","381397","0.0-7.0-0.1","null","","null","","","","","","","","","","","","","key","null","6.0602791262136435","853.3333333333334","476","j","false","img/T_ambi40.png","をる","prac",""
"","","","","","html-keyboard-response","14","381902","0.0-7.0-1.1","null","<span class='add_' style='color:yellow; font-size: 70px;'> 太慢! </span>","null","","","","","","","","","","","","","","","","","","","","","","","feedback_test"
"","","","","","psychophysics","15","384405","0.0-7.0-0.2","null","","null","","","","","","","","","","","","","key","null","6.060594660194096","853.3333333333334","476","f","false","img/H_ambi40.png","生人","prac",""
"","","","","","html-keyboard-response","16","384916","0.0-7.0-1.2","null","<span class='add_' style='color:yellow; font-size: 70px;'> 太慢! </span>","null","","","","","","","","","","","","","","","","","","","","","","","feedback_test"
"","","","","","psychophysics","17","387422","0.0-7.0-0.3","null","","null","","","","","","","","","","","","","key","null","6.0559658536585275","853.3333333333334","476","j","false","img/T_ambi40.png","をる","prac",""
"","","","","","html-keyboard-response","18","387929","0.0-7.0-1.3","null","<span class='add_' style='color:yellow; font-size: 70px;'> 太慢! </span>","null","","","","","","","","","","","","","","","","","","","","","","","feedback_test"
"","","","","","psychophysics","19","390434","0.0-7.0-0.4","null","","null","","","","","","","","","","","","","key","null","6.05951699029114","853.3333333333334","476","f","false","img/C_ambi40.png","自我","prac",""
"","","","","","html-keyboard-response","20","390942","0.0-7.0-1.4","null","<span class='add_' style='color:yellow; font-size: 70px;'> 太慢! </span>","null","","","","","","","","","","","","","","","","","","","","","","","feedback_test"
"","","","","","psychophysics","21","393445","0.0-7.0-0.5","null","","null","","","","","","","","","","","","","key","null","6.05958737864089","853.3333333333334","476","j","false","img/S_ambi40.png","自我","prac",""
"","","","","","html-keyboard-response","22","393953","0.0-7.0-1.5","null","<span class='add_' style='color:yellow; font-size: 70px;'> 太慢! </span>","null","","","","","","","","","","","","","","","","","","","","","","","feedback_test"
"","","","","","psychophysics","23","396454","0.0-7.0-0.6","null","","null","","","","","","","","","","","","","key","null","6.075306569343068","853.3333333333334","476","j","false","img/S_ambi40.png","生人","prac",""
"","","","","","html-keyboard-response","24","396957","0.0-7.0-1.6","null","<span class='add_' style='color:yellow; font-size: 70px;'> 太慢! </span>","null","","","","","","","","","","","","","","","","","","","","","","","feedback_test"
"","","","","","psychophysics","25","399460","0.0-7.0-0.7","null","","null","","","","","","","","","","","","","key","null","6.149444717444772","853.3333333333334","476","j","false","img/H_ambi40.png","朋友","prac",""
"","","","","","html-keyboard-response","26","399970","0.0-7.0-1.7","null","<span class='add_' style='color:yellow; font-size: 70px;'> 太慢! </span>","null","","","","","","","","","","","","","","","","","","","","","","","feedback_test"
"","","","","","psychophysics","27","402472","0.0-7.0-0.8","null","","null","","","","","","","","","","","","","key","null","6.091368292682952","853.3333333333334","476","j","false","img/T_ambi40.png","をる","prac",""
"","","","","","html-keyboard-response","28","402979","0.0-7.0-1.8","null","<span class='add_' style='color:yellow; font-size: 70px;'> 太慢! </span>","null","","","","","","","","","","","","","","","","","","","","","","","feedback_test"
"","","","","","psychophysics","29","405482","0.0-7.0-0.9","null","","null","","","","","","","","","","","","","key","null","6.062097087378717","853.3333333333334","476","f","false","img/S_ambi40.png","朋友","prac",""
"","","","","","html-keyboard-response","30","405988","0.0-7.0-1.9","null","<span class='add_' style='color:yellow; font-size: 70px;'> 太慢! </span>","null","","","","","","","","","","","","","","","","","","","","","","","feedback_test"
"","","","","","psychophysics","31","407332","0.0-7.0-0.10","342","","f","","","","","","","","","","","","","key","f","6.059722727272839","853.3333333333334","476","f","true","img/H_ambi40.png","生人","prac",""
"","","","","","html-keyboard-response","32","407837","0.0-7.0-1.10","null","<span style='color:GreenYellow; font-size: 70px;'>正确! </span>","null","","","","","","","","","","","","","","","","","","","","","","","feedback_test"
"","","","","","psychophysics","33","409178","0.0-7.0-0.11","339","","f","","","","","","","","","","","","","key","f","6.058309090908998","853.3333333333334","476","f","true","img/S_ambi40.png","朋友","prac",""
"","","","","","html-keyboard-response","34","409687","0.0-7.0-1.11","null","<span style='color:GreenYellow; font-size: 70px;'>正确! </span>","null","","","","","","","","","","","","","","","","","","","","","","","feedback_test"
"","","","","","psychophysics","35","410959","0.0-7.0-0.12","272","","f","","","","","","","","","","","","","key","f","6.059593301435485","853.3333333333334","476","j","false","img/C_ambi40.png","生人","prac",""
"","","","","","html-keyboard-response","36","411464","0.0-7.0-1.12","null","<span style='color:red; font-size: 70px;'>错误! </span>","null","","","","","","","","","","","","","","","","","","","","","","","feedback_test"
"","","","","","psychophysics","37","413968","0.0-7.0-0.13","null","","null","","","","","","","","","","","","","key","null","6.060597087378677","853.3333333333334","476","j","false","img/T_ambi40.png","をる","prac",""
"","","","","","html-keyboard-response","38","414471","0.0-7.0-1.13","null","<span class='add_' style='color:yellow; font-size: 70px;'> 太慢! </span>","null","","","","","","","","","","","","","","","","","","","","","","","feedback_test"
"","","","","","psychophysics","39","415922","0.0-7.0-0.14","450","","f","","","","","","","","","","","","","key","f","6.060037815126007","853.3333333333334","476","f","true","img/C_ambi40.png","自我","prac",""
"","","","","","html-keyboard-response","40","416424","0.0-7.0-1.14","null","<span style='color:GreenYellow; font-size: 70px;'>正确! </span>","null","","","","","","","","","","","","","","","","","","","","","","","feedback_test"
"","","","","","psychophysics","41","417760","0.0-7.0-0.15","334","","f","","","","","","","","","","","","","key","f","6.060566210045775","853.3333333333334","476","j","false","img/H_ambi40.png","自我","prac",""
"","","","","","html-keyboard-response","42","418272","0.0-7.0-1.15","null","<span style='color:red; font-size: 70px;'>错误! </span>","null","","","","","","","","","","","","","","","","","","","","","","","feedback_test"
"","","","","","psychophysics","43","420779","0.0-7.0-0.16","null","","null","","","","","","","","","","","","","key","null","6.060601941747557","853.3333333333334","476","j","false","img/H_ambi40.png","自我","prac",""
"","","","","","html-keyboard-response","44","421282","0.0-7.0-1.16","null","<span class='add_' style='color:yellow; font-size: 70px;'> 太慢! </span>","null","","","","","","","","","","","","","","","","","","","","","","","feedback_test"
"","","","","","psychophysics","45","422588","0.0-7.0-0.17","299","","f","","","","","","","","","","","","","key","f","6.064254716981283","853.3333333333334","476","j","false","img/C_ambi40.png","生人","prac",""
"","","","","","html-keyboard-response","46","423100","0.0-7.0-1.17","null","<span style='color:red; font-size: 70px;'>错误! </span>","null","","","","","","","","","","","","","","","","","","","","","","","feedback_test"
"","","","","","psychophysics","47","425602","0.0-7.0-0.18","null","","null","","","","","","","","","","","","","key","null","6.060786407766977","853.3333333333334","476","j","false","img/T_ambi40.png","をる","prac",""
"","","","","","html-keyboard-response","48","426112","0.0-7.0-1.18","null","<span class='add_' style='color:yellow; font-size: 70px;'> 太慢! </span>","null","","","","","","","","","","","","","","","","","","","","","","","feedback_test"
"","","","","","psychophysics","49","427568","0.0-7.0-0.19","455","","f","","","","","","","","","","","","","key","f","6.060920833333269","853.3333333333334","476","f","true","img/C_ambi40.png","自我","prac",""
"","","","","","html-keyboard-response","50","428072","0.0-7.0-1.19","null","<span style='color:GreenYellow; font-size: 70px;'>正确! </span>","null","","","","","","","","","","","","","","","","","","","","","","","feedback_test"
"","","","","","psychophysics","51","430298","0.0-7.0-0.20","1226","","j","","","","","","","","","","","","","key","j","6.060338797814135","853.3333333333334","476","j","true","img/C_ambi40.png","朋友","prac",""
"","","","","","html-keyboard-response","52","430802","0.0-7.0-1.20","null","<span style='color:GreenYellow; font-size: 70px;'>正确! </span>","null","","","","","","","","","","","","","","","","","","","","","","","feedback_test"
"","","","","","psychophysics","53","432402","0.0-7.0-0.21","599","","j","","","","","","","","","","","","","key","j","6.0598625954198795","853.3333333333334","476","f","false","img/S_ambi40.png","朋友","prac",""
"","","","","","html-keyboard-response","54","432918","0.0-7.0-1.21","null","<span style='color:red; font-size: 70px;'>错误! </span>","null","","","","","","","","","","","","","","","","","","","","","","","feedback_test"
"","","","","","psychophysics","55","434627","0.0-7.0-0.22","708","","f","","","","","","","","","","","","","key","f","6.0616085409251825","853.3333333333334","476","j","false","img/T_ambi40.png","をる","prac",""
"","","","","","html-keyboard-response","56","435139","0.0-7.0-1.22","null","<span style='color:red; font-size: 70px;'>错误! </span>","null","","","","","","","","","","","","","","","","","","","","","","","feedback_test"
"","","","","","psychophysics","57","436734","0.0-7.0-0.23","593","","f","","","","","","","","","","","","","key","f","6.060389312977044","853.3333333333334","476","f","true","img/H_ambi40.png","生人","prac",""
"","","","","","html-keyboard-response","58","437249","0.0-7.0-1.23","null","<span style='color:GreenYellow; font-size: 70px;'>正确! </span>","null","","","","","","","","","","","","","","","","","","","","","","","feedback_test"
"","","","","","psychophysics","59","438911","0.0-7.0-0.24","660","","f","","","","","","","","","","","","","key","f","6.060897058823578","853.3333333333334","476","j","false","img/S_ambi40.png","自我","prac",""
"","","","","","html-keyboard-response","60","439413","0.0-7.0-1.24","null","<span style='color:red; font-size: 70px;'>错误! </span>","null","","","","","","","","","","","","","","","","","","","","","","","feedback_test"
"","","","","","psychophysics","61","440939","0.0-7.0-0.25","525","","f","","","","","","","","","","","","","key","f","6.0607928286851065","853.3333333333334","476","f","true","img/H_ambi40.png","生人","prac",""
"","","","","","html-keyboard-response","62","441440","0.0-7.0-1.25","null","<span style='color:GreenYellow; font-size: 70px;'>正确! </span>","null","","","","","","","","","","","","","","","","","","","","","","","feedback_test"
"","","","","","psychophysics","63","443215","0.0-7.0-0.26","769","","f","","","","","","","","","","","","","key","f","6.06070790378016","853.3333333333334","476","f","true","img/C_ambi40.png","自我","prac",""
"","","","","","html-keyboard-response","64","443717","0.0-7.0-1.26","null","<span style='color:GreenYellow; font-size: 70px;'>正确! </span>","null","","","","","","","","","","","","","","","","","","","","","","","feedback_test"
"","","","","","psychophysics","65","445436","0.0-7.0-0.27","718","","j","","","","","","","","","","","","","key","j","6.060400709219843","853.3333333333334","476","j","true","img/T_ambi40.png","をる","prac",""
"","","","","","html-keyboard-response","66","445949","0.0-7.0-1.27","null","<span style='color:GreenYellow; font-size: 70px;'>正确! </span>","null","","","","","","","","","","","","","","","","","","","","","","","feedback_test"
"","","","","","psychophysics","67","447659","0.0-7.0-0.28","707","","f","","","","","","","","","","","","","key","f","6.060697508896942","853.3333333333334","476","j","false","img/S_ambi40.png","生人","prac",""
"","","","","","html-keyboard-response","68","448167","0.0-7.0-1.28","null","<span style='color:red; font-size: 70px;'>错误! </span>","null","","","","","","","","","","","","","","","","","","","","","","","feedback_test"
"","","","","","psychophysics","69","449850","0.0-7.0-0.29","677","","f","","","","","","","","","","","","","key","f","6.06075362318834","853.3333333333334","476","f","true","img/S_ambi40.png","朋友","prac",""
"","","","","","html-keyboard-response","70","450366","0.0-7.0-1.29","null","<span style='color:GreenYellow; font-size: 70px;'>正确! </span>","null","","","","","","","","","","","","","","","","","","","","","","","feedback_test"
"","","","","","psychophysics","71","452214","0.0-7.0-0.30","847","","j","","","","","","","","","","","","","key","j","6.06078947368434","853.3333333333334","476","j","true","img/H_ambi40.png","朋友","prac",""
"","","","","","html-keyboard-response","72","452719","0.0-7.0-1.30","null","<span style='color:GreenYellow; font-size: 70px;'>正确! </span>","null","","","","","","","","","","","","","","","","","","","","","","","feedback_test"
"","","","","","psychophysics","73","454405","0.0-7.0-0.31","681","","f","","","","","","","","","","","","","key","f","6.060581227436675","853.3333333333334","476","j","false","img/T_ambi40.png","をる","prac",""
"","","","","","html-keyboard-response","74","454914","0.0-7.0-1.31","null","<span style='color:red; font-size: 70px;'>错误! </span>","null","","","","","","","","","","","","","","","","","","","","","","","feedback_test"
"","","","","","psychophysics","75","457420","0.0-8.0-0.0-0.0","null","","null","","","","","","","","","","","","","key","null","6.060269417475742","853.3333333333334","476","j","false","img/C_ambi40.png","生人","prac",""
"","","","","","html-keyboard-response","76","457934","0.0-8.0-0.0-1.0","null","<span class='add_' style='color:yellow; font-size: 70px;'> 太慢! </span>","null","","","","","","","","","","","","","","","","","","","","","","","feedback_test"
"","","","","","psychophysics","77","459710","0.0-8.0-0.0-0.1","775","","f","","","","","","","","","","","","","key","f","6.0600274914089125","853.3333333333334","476","f","true","img/H_ambi40.png","生人","prac",""
"","","","","","html-keyboard-response","78","460223","0.0-8.0-0.0-1.1","null","<span style='color:GreenYellow; font-size: 70px;'>正确! </span>","null","","","","","","","","","","","","","","","","","","","","","","","feedback_test"
"","","","","","psychophysics","79","462730","0.0-8.0-0.0-0.2","null","","null","","","","","","","","","","","","","key","null","6.060611650485458","853.3333333333334","476","j","false","img/S_ambi40.png","自我","prac",""
"","","","","","html-keyboard-response","80","463242","0.0-8.0-0.0-1.2","null","<span class='add_' style='color:yellow; font-size: 70px;'> 太慢! </span>","null","","","","","","","","","","","","","","","","","","","","","","","feedback_test"
"","","","","","psychophysics","81","465460","0.0-8.0-0.0-0.3","1215","","f","","","","","","","","","","","","","key","f","6.061021917808183","853.3333333333334","476","j","false","img/S_ambi40.png","生人","prac",""
"","","","","","html-keyboard-response","82","465965","0.0-8.0-0.0-1.3","null","<span style='color:red; font-size: 70px;'>错误! </span>","null","","","","","","","","","","","","","","","","","","","","","","","feedback_test"
"","","","","","psychophysics","83","468223","0.0-8.0-0.0-0.4","1257","","f","","","","","","","","","","","","","key","f","6.0597628032344","853.3333333333334","476","j","false","img/C_ambi40.png","朋友","prac",""
"","","","","","html-keyboard-response","84","468729","0.0-8.0-0.0-1.4","null","<span style='color:red; font-size: 70px;'>错误! </span>","null","","","","","","","","","","","","","","","","","","","","","","","feedback_test"
"","","","","","psychophysics","85","470451","0.0-8.0-0.0-0.5","721","","f","","","","","","","","","","","","","key","f","6.082384341637094","853.3333333333334","476","f","true","img/S_ambi40.png","朋友","prac",""
"","","","","","html-keyboard-response","86","470966","0.0-8.0-0.0-1.5","null","<span style='color:GreenYellow; font-size: 70px;'>正确! </span>","null","","","","","","","","","","","","","","","","","","","","","","","feedback_test"
"","","","","","psychophysics","87","472787","0.0-8.0-0.0-0.6","820","","j","","","","","","","","","","","","","key","j","6.060570000000104","853.3333333333334","476","j","true","img/H_ambi40.png","朋友","prac",""
"","","","","","html-keyboard-response","88","473301","0.0-8.0-0.0-1.6","null","<span style='color:GreenYellow; font-size: 70px;'>正确! </span>","null","","","","","","","","","","","","","","","","","","","","","","","feedback_test"
"","","","","","psychophysics","89","475079","0.0-8.0-0.0-0.7","775","","j","","","","","","","","","","","","","key","j","6.0604863013699015","853.3333333333334","476","j","true","img/T_ambi40.png","をる","prac",""
"","","","","","html-keyboard-response","90","475592","0.0-8.0-0.0-1.7","null","<span style='color:GreenYellow; font-size: 70px;'>正确! </span>","null","","","","","","","","","","","","","","","","","","","","","","","feedback_test"
"","","","","","psychophysics","91","477405","0.0-8.0-0.0-0.8","813","","f","","","","","","","","","","","","","key","f","6.0608657718122","853.3333333333334","476","f","true","img/C_ambi40.png","自我","prac",""
"","","","","","html-keyboard-response","92","477918","0.0-8.0-0.0-1.8","null","<span style='color:GreenYellow; font-size: 70px;'>正确! </span>","null","","","","","","","","","","","","","","","","","","","","","","","feedback_test"
"","","","","","psychophysics","93","479691","0.0-8.0-0.0-0.9","770","","j","","","","","","","","","","","","","key","j","6.061381443299047","853.3333333333334","476","j","true","img/H_ambi40.png","自我","prac",""
"","","","","","html-keyboard-response","94","480207","0.0-8.0-0.0-1.9","null","<span style='color:GreenYellow; font-size: 70px;'>正确! </span>","null","","","","","","","","","","","","","","","","","","","","","","","feedback_test"
"","","","","","psychophysics","95","481921","0.0-8.0-0.0-0.10","712","","j","","","","","","","","","","","","","key","j","6.061459074732955","853.3333333333334","476","j","true","img/T_ambi40.png","をる","prac",""
"","","","","","html-keyboard-response","96","482423","0.0-8.0-0.0-1.10","null","<span style='color:GreenYellow; font-size: 70px;'>正确! </span>","null","","","","","","","","","","","","","","","","","","","","","","","feedback_test"
"","","","","","psychophysics","97","484205","0.0-8.0-0.0-0.11","781","","j","","","","","","","","","","","","","key","j","6.061440273037668","853.3333333333334","476","j","true","img/T_ambi40.png","をる","prac",""
"","","","","","html-keyboard-response","98","484714","0.0-8.0-0.0-1.11","null","<span style='color:GreenYellow; font-size: 70px;'>正确! </span>","null","","","","","","","","","","","","","","","","","","","","","","","feedback_test"
"","","","","","psychophysics","99","486520","0.0-8.0-0.0-0.12","803","","f","","","","","","","","","","","","","key","f","6.060851351351507","853.3333333333334","476","f","true","img/S_ambi40.png","朋友","prac",""
"","","","","","html-keyboard-response","100","487030","0.0-8.0-0.0-1.12","null","<span style='color:GreenYellow; font-size: 70px;'>正确! </span>","null","","","","","","","","","","","","","","","","","","","","","","","feedback_test"
"","","","","","psychophysics","101","488632","0.0-8.0-0.0-0.13","600","","f","","","","","","","","","","","","","key","f","6.071673076923113","853.3333333333334","476","f","true","img/H_ambi40.png","生人","prac",""
"","","","","","html-keyboard-response","102","489134","0.0-8.0-0.0-1.13","null","<span style='color:GreenYellow; font-size: 70px;'>正确! </span>","null","","","","","","","","","","","","","","","","","","","","","","","feedback_test"
"","","","","","psychophysics","103","490847","0.0-8.0-0.0-0.14","711","","j","","","","","","","","","","","","","key","j","6.061120567375799","853.3333333333334","476","j","true","img/T_ambi40.png","をる","prac",""
"","","","","","html-keyboard-response","104","491355","0.0-8.0-0.0-1.14","null","<span style='color:GreenYellow; font-size: 70px;'>正确! </span>","null","","","","","","","","","","","","","","","","","","","","","","","feedback_test"
"","","","","","psychophysics","105","493011","0.0-8.0-0.0-0.15","655","","f","","","","","","","","","","","","","key","f","6.0600551470589","853.3333333333334","476","f","true","img/C_ambi40.png","自我","prac",""
"","","","","","html-keyboard-response","106","493512","0.0-8.0-0.0-1.15","null","<span style='color:GreenYellow; font-size: 70px;'>正确! </span>","null","","","","","","","","","","","","","","","","","","","","","","","feedback_test"
"","","","","","psychophysics","107","495205","0.0-8.0-0.0-0.16","689","","j","","","","","","","","","","","","","key","j","6.084676363636444","853.3333333333334","476","j","true","img/S_ambi40.png","自我","prac",""
"","","","","","html-keyboard-response","108","495716","0.0-8.0-0.0-1.16","null","<span style='color:GreenYellow; font-size: 70px;'>正确! </span>","null","","","","","","","","","","","","","","","","","","","","","","","feedback_test"
"","","","","","psychophysics","109","497570","0.0-8.0-0.0-0.17","853","","f","","","","","","","","","","","","","key","f","6.059832236842148","853.3333333333334","476","f","true","img/C_ambi40.png","自我","prac",""
"","","","","","html-keyboard-response","110","498079","0.0-8.0-0.0-1.17","null","<span style='color:GreenYellow; font-size: 70px;'>正确! </span>","null","","","","","","","","","","","","","","","","","","","","","","","feedback_test"
"","","","","","psychophysics","111","499715","0.0-8.0-0.0-0.18","635","","f","","","","","","","","","","","","","key","f","6.061490706319801","853.3333333333334","476","f","true","img/C_ambi40.png","自我","prac",""
"","","","","","html-keyboard-response","112","500221","0.0-8.0-0.0-1.18","null","<span style='color:GreenYellow; font-size: 70px;'>正确! </span>","null","","","","","","","","","","","","","","","","","","","","","","","feedback_test"
"","","","","","psychophysics","113","502047","0.0-8.0-0.0-0.19","822","","f","","","","","","","","","","","","","key","f","6.058865771811939","853.3333333333334","476","f","true","img/S_ambi40.png","朋友","prac",""
"","","","","","html-keyboard-response","114","502556","0.0-8.0-0.0-1.19","null","<span style='color:GreenYellow; font-size: 70px;'>正确! </span>","null","","","","","","","","","","","","","","","","","","","","","","","feedback_test"
"","","","","","psychophysics","115","504459","0.0-8.0-0.0-0.20","900","","f","","","","","","","","","","","","","key","f","6.0608434504794015","853.3333333333334","476","f","true","img/H_ambi40.png","生人","prac",""
"","","","","","html-keyboard-response","116","504966","0.0-8.0-0.0-1.20","null","<span style='color:GreenYellow; font-size: 70px;'>正确! </span>","null","","","","","","","","","","","","","","","","","","","","","","","feedback_test"
"","","","","","psychophysics","117","506726","0.0-8.0-0.0-0.21","760","","j","","","","","","","","","","","","","key","j","6.060411764705992","853.3333333333334","476","j","true","img/H_ambi40.png","自我","prac",""
"","","","","","html-keyboard-response","118","507227","0.0-8.0-0.0-1.21","null","<span style='color:GreenYellow; font-size: 70px;'>正确! </span>","null","","","","","","","","","","","","","","","","","","","","","","","feedback_test"
"","","","","","psychophysics","119","508968","0.0-8.0-0.0-0.22","737","","j","","","","","","","","","","","","","key","j","6.060272727272769","853.3333333333334","476","j","true","img/T_ambi40.png","をる","prac",""
"","","","","","html-keyboard-response","120","509482","0.0-8.0-0.0-1.22","null","<span style='color:GreenYellow; font-size: 70px;'>正确! </span>","null","","","","","","","","","","","","","","","","","","","","","","","feedback_test"
"","","","","","psychophysics","121","511081","0.0-8.0-0.0-0.23","595","","j","","","","","","","","","","","","","key","j","6.061088122605431","853.3333333333334","476","j","true","img/T_ambi40.png","をる","prac",""
"","","","","","html-keyboard-response","122","511591","0.0-8.0-0.0-1.23","null","<span style='color:GreenYellow; font-size: 70px;'>正确! </span>","null","","","","","","","","","","","","","","","","","","","","","","","feedback_test"
"","","","","","psychophysics","123","513042","0.0-8.0-0.0-0.24","448","","j","","","","","","","","","","","","","key","j","6.059962184873982","853.3333333333334","476","j","true","img/T_ambi40.png","をる","prac",""
"","","","","","html-keyboard-response","124","513547","0.0-8.0-0.0-1.24","null","<span style='color:GreenYellow; font-size: 70px;'>正确! </span>","null","","","","","","","","","","","","","","","","","","","","","","","feedback_test"
"","","","","","psychophysics","125","515220","0.0-8.0-0.0-0.25","672","","f","","","","","","","","","","","","","key","f","6.061690909090791","853.3333333333334","476","j","false","img/S_ambi40.png","生人","prac",""
"","","","","","html-keyboard-response","126","515722","0.0-8.0-0.0-1.25","null","<span style='color:red; font-size: 70px;'>错误! </span>","null","","","","","","","","","","","","","","","","","","","","","","","feedback_test"
"","","","","","psychophysics","127","517429","0.0-8.0-0.0-0.26","706","","j","","","","","","","","","","","","","key","j","6.059860714285709","853.3333333333334","476","j","true","img/T_ambi40.png","をる","prac",""
"","","","","","html-keyboard-response","128","517942","0.0-8.0-0.0-1.26","null","<span style='color:GreenYellow; font-size: 70px;'>正确! </span>","null","","","","","","","","","","","","","","","","","","","","","","","feedback_test"
"","","","","","psychophysics","129","519738","0.0-8.0-0.0-0.27","792","","j","","","","","","","","","","","","","key","j","6.0602372881356565","853.3333333333334","476","j","true","img/C_ambi40.png","朋友","prac",""
"","","","","","html-keyboard-response","130","520254","0.0-8.0-0.0-1.27","null","<span style='color:GreenYellow; font-size: 70px;'>正确! </span>","null","","","","","","","","","","","","","","","","","","","","","","","feedback_test"
"","","","","","psychophysics","131","522047","0.0-8.0-0.0-0.28","792","","j","","","","","","","","","","","","","key","j","6.051102389078293","853.3333333333334","476","j","true","img/H_ambi40.png","朋友","prac",""
"","","","","","html-keyboard-response","132","522549","0.0-8.0-0.0-1.28","null","<span style='color:GreenYellow; font-size: 70px;'>正确! </span>","null","","","","","","","","","","","","","","","","","","","","","","","feedback_test"
"","","","","","psychophysics","133","524379","0.0-8.0-0.0-0.29","827","","j","","","","","","","","","","","","","key","j","6.10150666666644","853.3333333333334","476","j","true","img/C_ambi40.png","生人","prac",""
"","","","","","html-keyboard-response","134","524884","0.0-8.0-0.0-1.29","null","<span style='color:GreenYellow; font-size: 70px;'>正确! </span>","null","","","","","","","","","","","","","","","","","","","","","","","feedback_test"
"","","","","","psychophysics","135","526723","0.0-8.0-0.0-0.30","837","","f","","","","","","","","","","","","","key","f","6.059082508250831","853.3333333333334","476","f","true","img/H_ambi40.png","生人","prac",""
"","","","","","html-keyboard-response","136","527231","0.0-8.0-0.0-1.30","null","<span style='color:GreenYellow; font-size: 70px;'>正确! </span>","null","","","","","","","","","","","","","","","","","","","","","","","feedback_test"
"","","","","","psychophysics","137","529263","0.0-8.0-0.0-0.31","1030","","f","","","","","","","","","","","","","key","f","6.060544910179842","853.3333333333334","476","f","true","img/S_ambi40.png","朋友","prac",""
"","","","","","html-keyboard-response","138","529774","0.0-8.0-0.0-1.31","null","<span style='color:GreenYellow; font-size: 70px;'>正确! </span>","null","","","","","","","","","","","","","","","","","","","","","","","feedback_test"
"","","","","","html-keyboard-response","139","538627","0.0-9.0","8852","<style>.context{color:white; font-size: 35px; line-height:40px}</style>                          <div><p class='context'>您正确回答了84% 的试次。</p ><p class='context'>您的平均反应时为754毫秒。</p ><p class='context'>恭喜您完成练习。按任意键进入正式实验。</p ><p class='footer' style='font-size: 35px; line-height:40px;'>请在进入正式实验实验之前将您的<span style='color: lightgreen;'>食指</span>放在电脑键盘的相应键位上进行按键。</p >"," ","","","","","","","","","","","","","","","","","","","","","","",""
"","","","","","psychophysics","140","540594","0.0-10.0-0.0-0.0-0.0-0.0","961","","f","","","","","","","","","","","","","key","f","6.060938080495235","853.3333333333334","476","j","false","img/S_ambi40.png","自我","same",""
"","","","","","html-keyboard-response","141","541107","0.0-10.0-0.0-0.0-0.0-1.0","null","<span style='color:red; font-size: 70px;'>错误! </span>","null","","","","","","","","","","","","","","","","","","","","","","","feedback_test"
"","","","","","psychophysics","142","542986","0.0-10.0-0.0-0.0-0.0-0.1","877","","f","","","","","","","","","","","","","key","f","6.1200260586319155","853.3333333333334","476","f","true","img/S_ambi40.png","朋友","same",""
"","","","","","html-keyboard-response","143","543493","0.0-10.0-0.0-0.0-0.0-1.1","null","<span style='color:GreenYellow; font-size: 70px;'>正确! </span>","null","","","","","","","","","","","","","","","","","","","","","","","feedback_test"
"","","","","","psychophysics","144","545191","0.0-10.0-0.0-0.0-0.0-0.2","695","","j","","","","","","","","","","","","","key","j","6.0603154121863065","853.3333333333334","476","j","true","img/T_ambi40.png","をる","same",""
"","","","","","html-keyboard-response","145","545696","0.0-10.0-0.0-0.0-0.0-1.2","null","<span style='color:GreenYellow; font-size: 70px;'>正确! </span>","null","","","","","","","","","","","","","","","","","","","","","","","feedback_test"
"","","","","","psychophysics","146","547500","0.0-10.0-0.0-0.0-0.0-0.3","802","","j","","","","","","","","","","","","","key","j","6.0611452702704245","853.3333333333334","476","j","true","img/H_ambi40.png","自我","same",""
"","","","","","html-keyboard-response","147","548010","0.0-10.0-0.0-0.0-0.0-1.3","null","<span style='color:GreenYellow; font-size: 70px;'>正确! </span>","null","","","","","","","","","","","","","","","","","","","","","","","feedback_test"
"","","","","","psychophysics","148","549719","0.0-10.0-0.0-0.0-0.0-0.4","707","","f","","","","","","","","","","","","","key","f","6.0814321428570635","853.3333333333334","476","f","true","img/S_ambi40.png","朋友","same",""
"","","","","","html-keyboard-response","149","550229","0.0-10.0-0.0-0.0-0.0-1.4","null","<span style='color:GreenYellow; font-size: 70px;'>正确! </span>","null","","","","","","","","","","","","","","","","","","","","","","","feedback_test"
"","","","","","psychophysics","150","551991","0.0-10.0-0.0-0.0-0.0-0.5","761","","j","","","","","","","","","","","","","key","j","6.060311418684895","853.3333333333334","476","j","true","img/S_ambi40.png","生人","same",""
"","","","","","html-keyboard-response","151","552506","0.0-10.0-0.0-0.0-0.0-1.5","null","<span style='color:GreenYellow; font-size: 70px;'>正确! </span>","null","","","","","","","","","","","","","","","","","","","","","","","feedback_test"
"","","","","","psychophysics","152","554191","0.0-10.0-0.0-0.0-0.0-0.6","681","","f","","","","","","","","","","","","","key","f","6.06031884057945","853.3333333333334","476","f","true","img/C_ambi40.png","自我","same",""
"","","","","","html-keyboard-response","153","554702","0.0-10.0-0.0-0.0-0.0-1.6","null","<span style='color:GreenYellow; font-size: 70px;'>正确! </span>","null","","","","","","","","","","","","","","","","","","","","","","","feedback_test"
"","","","","","psychophysics","154","556387","0.0-10.0-0.0-0.0-0.0-0.7","684","","f","","","","","","","","","","","","","key","f","6.060634057970963","853.3333333333334","476","f","true","img/H_ambi40.png","生人","same",""
"","","","","","html-keyboard-response","155","556898","0.0-10.0-0.0-0.0-0.0-1.7","null","<span style='color:GreenYellow; font-size: 70px;'>正确! </span>","null","","","","","","","","","","","","","","","","","","","","","","","feedback_test"
"","","","","","psychophysics","156","558746","0.0-10.0-0.0-0.0-0.0-0.8","847","","j","","","","","","","","","","","","","key","j","6.060855737705257","853.3333333333334","476","j","true","img/C_ambi40.png","朋友","same",""
"","","","","","html-keyboard-response","157","559262","0.0-10.0-0.0-0.0-0.0-1.8","null","<span style='color:GreenYellow; font-size: 70px;'>正确! </span>","null","","","","","","","","","","","","","","","","","","","","","","","feedback_test"
"","","","","","psychophysics","158","560783","0.0-10.0-0.0-0.0-0.0-0.9","520","","f","","","","","","","","","","","","","key","f","6.059662650602526","853.3333333333334","476","f","true","img/H_ambi40.png","生人","same",""
"","","","","","html-keyboard-response","159","561285","0.0-10.0-0.0-0.0-0.0-1.9","null","<span style='color:GreenYellow; font-size: 70px;'>正确! </span>","null","","","","","","","","","","","","","","","","","","","","","","","feedback_test"
"","","","","","psychophysics","160","562979","0.0-10.0-0.0-0.0-0.0-0.10","693","","f","","","","","","","","","","","","","key","f","6.060845323741141","853.3333333333334","476","f","true","img/C_ambi40.png","自我","same",""
"","","","","","html-keyboard-response","161","563491","0.0-10.0-0.0-0.0-0.0-1.10","null","<span style='color:GreenYellow; font-size: 70px;'>正确! </span>","null","","","","","","","","","","","","","","","","","","","","","","","feedback_test"
"","","","","","psychophysics","162","565289","0.0-10.0-0.0-0.0-0.0-0.11","796","","j","","","","","","","","","","","","","key","j","6.059847457626819","853.3333333333334","476","f","false","img/H_ambi40.png","生人","same",""
"","","","","","html-keyboard-response","163","565802","0.0-10.0-0.0-0.0-0.0-1.11","null","<span style='color:red; font-size: 70px;'>错误! </span>","null","","","","","","","","","","","","","","","","","","","","","","","feedback_test"
"","","","","","psychophysics","164","567696","0.0-10.0-0.0-0.0-0.0-0.12","890","","j","","","","","","","","","","","","","key","j","6.0606848874598755","853.3333333333334","476","j","true","img/H_ambi40.png","朋友","same",""
"","","","","","html-keyboard-response","165","568212","0.0-10.0-0.0-0.0-0.0-1.12","null","<span style='color:GreenYellow; font-size: 70px;'>正确! </span>","null","","","","","","","","","","","","","","","","","","","","","","","feedback_test"
"","","","","","psychophysics","166","569718","0.0-10.0-0.0-0.0-0.0-0.13","505","","f","","","","","","","","","","","","","key","f","6.0617177419354125","853.3333333333334","476","f","true","img/S_ambi40.png","朋友","same",""
"","","","","","html-keyboard-response","167","570227","0.0-10.0-0.0-0.0-0.0-1.13","null","<span style='color:GreenYellow; font-size: 70px;'>正确! </span>","null","","","","","","","","","","","","","","","","","","","","","","","feedback_test"
"","","","","","psychophysics","168","571821","0.0-10.0-0.0-0.0-0.0-0.14","591","","f","","","","","","","","","","","","","key","f","6.132196153846318","853.3333333333334","476","j","false","img/C_ambi40.png","生人","same",""
"","","","","","html-keyboard-response","169","572336","0.0-10.0-0.0-0.0-0.0-1.14","null","<span style='color:red; font-size: 70px;'>错误! </span>","null","","","","","","","","","","","","","","","","","","","","","","","feedback_test"
"","","","","","psychophysics","170","573979","0.0-10.0-0.0-0.0-0.0-0.15","639","","j","","","","","","","","","","","","","key","j","6.0606259259257325","853.3333333333334","476","j","true","img/T_ambi40.png","をる","same",""
"","","","","","html-keyboard-response","171","574492","0.0-10.0-0.0-0.0-0.0-1.15","null","<span style='color:GreenYellow; font-size: 70px;'>正确! </span>","null","","","","","","","","","","","","","","","","","","","","","","","feedback_test"
"","","","","","psychophysics","172","576240","0.0-10.0-0.0-0.0-0.0-0.16","747","","j","","","","","","","","","","","","","key","j","6.061534722222455","853.3333333333334","476","j","true","img/T_ambi40.png","をる","same",""
"","","","","","html-keyboard-response","173","576745","0.0-10.0-0.0-0.0-0.0-1.16","null","<span style='color:GreenYellow; font-size: 70px;'>正确! </span>","null","","","","","","","","","","","","","","","","","","","","","","","feedback_test"
"","","","","","psychophysics","174","578410","0.0-10.0-0.0-0.0-0.0-0.17","664","","f","","","","","","","","","","","","","key","f","6.08313186813168","853.3333333333334","476","f","true","img/C_ambi40.png","自我","same",""
"","","","","","html-keyboard-response","175","578922","0.0-10.0-0.0-0.0-0.0-1.17","null","<span style='color:GreenYellow; font-size: 70px;'>正确! </span>","null","","","","","","","","","","","","","","","","","","","","","","","feedback_test"
"","","","","","psychophysics","176","580487","0.0-10.0-0.0-0.0-0.0-0.18","559","","f","","","","","","","","","","","","","key","f","6.061105058365864","853.3333333333334","476","f","true","img/H_ambi40.png","生人","same",""
"","","","","","html-keyboard-response","177","580993","0.0-10.0-0.0-0.0-0.0-1.18","null","<span style='color:GreenYellow; font-size: 70px;'>正确! </span>","null","","","","","","","","","","","","","","","","","","","","","","","feedback_test"
"","","","","","psychophysics","178","582960","0.0-10.0-0.0-0.0-0.0-0.19","966","","j","","","","","","","","","","","","","key","j","6.060436532507584","853.3333333333334","476","j","true","img/S_ambi40.png","生人","same",""
"","","","","","html-keyboard-response","179","583465","0.0-10.0-0.0-0.0-0.0-1.19","null","<span style='color:GreenYellow; font-size: 70px;'>正确! </span>","null","","","","","","","","","","","","","","","","","","","","","","","feedback_test"
"","","","","","psychophysics","180","584901","0.0-10.0-0.0-0.0-0.0-0.20","435","","f","","","","","","","","","","","","","key","f","6.050162393161948","853.3333333333334","476","f","true","img/H_ambi40.png","生人","same",""
"","","","","","html-keyboard-response","181","585406","0.0-10.0-0.0-0.0-0.0-1.20","null","<span style='color:GreenYellow; font-size: 70px;'>正确! </span>","null","","","","","","","","","","","","","","","","","","","","","","","feedback_test"
"","","","","","psychophysics","182","586951","0.0-10.0-0.0-0.0-0.0-0.21","544","","j","","","","","","","","","","","","","key","j","6.0607707509881426","853.3333333333334","476","j","true","img/T_ambi40.png","をる","same",""
"","","","","","html-keyboard-response","183","587457","0.0-10.0-0.0-0.0-0.0-1.21","null","<span style='color:GreenYellow; font-size: 70px;'>正确! </span>","null","","","","","","","","","","","","","","","","","","","","","","","feedback_test"
"","","","","","psychophysics","184","589254","0.0-10.0-0.0-0.0-0.0-0.22","793","","f","","","","","","","","","","","","","key","f","6.060681355932443","853.3333333333334","476","f","true","img/S_ambi40.png","朋友","same",""
"","","","","","html-keyboard-response","185","589765","0.0-10.0-0.0-0.0-0.0-1.22","null","<span style='color:GreenYellow; font-size: 70px;'>正确! </span>","null","","","","","","","","","","","","","","","","","","","","","","","feedback_test"
"","","","","","psychophysics","186","591372","0.0-10.0-0.0-0.0-0.0-0.23","604","","f","","","","","","","","","","","","","key","f","6.060660377358754","853.3333333333334","476","f","true","img/H_ambi40.png","生人","same",""
"","","","","","html-keyboard-response","187","591882","0.0-10.0-0.0-0.0-0.0-1.23","null","<span style='color:GreenYellow; font-size: 70px;'>正确! </span>","null","","","","","","","","","","","","","","","","","","","","","","","feedback_test"
"","","","","","psychophysics","188","593555","0.0-10.0-0.0-0.0-0.0-0.24","673","","f","","","","","","","","","","","","","key","f","6.105098901099044","853.3333333333334","476","f","true","img/S_ambi40.png","朋友","same",""
"","","","","","html-keyboard-response","189","594058","0.0-10.0-0.0-0.0-0.0-1.24","null","<span style='color:GreenYellow; font-size: 70px;'>正确! </span>","null","","","","","","","","","","","","","","","","","","","","","","","feedback_test"
"","","","","","psychophysics","190","595831","0.0-10.0-0.0-0.0-0.0-0.25","771","","j","","","","","","","","","","","","","key","j","6.231872791519418","853.3333333333334","476","j","true","img/S_ambi40.png","自我","same",""
"","","","","","html-keyboard-response","191","596335","0.0-10.0-0.0-0.0-0.0-1.25","null","<span style='color:GreenYellow; font-size: 70px;'>正确! </span>","null","","","","","","","","","","","","","","","","","","","","","","","feedback_test"
"","","","","","psychophysics","192","598029","0.0-10.0-0.0-0.0-0.0-0.26","693","","j","","","","","","","","","","","","","key","j","6.060640287769811","853.3333333333334","476","j","true","img/H_ambi40.png","朋友","same",""
"","","","","","html-keyboard-response","193","598539","0.0-10.0-0.0-0.0-0.0-1.26","null","<span style='color:GreenYellow; font-size: 70px;'>正确! </span>","null","","","","","","","","","","","","","","","","","","","","","","","feedback_test"
"","","","","","psychophysics","194","600135","0.0-10.0-0.0-0.0-0.0-0.27","595","","j","","","","","","","","","","","","","key","j","6.060381679389562","853.3333333333334","476","j","true","img/T_ambi40.png","をる","same",""
"","","","","","html-keyboard-response","195","600638","0.0-10.0-0.0-0.0-0.0-1.27","null","<span style='color:GreenYellow; font-size: 70px;'>正确! </span>","null","","","","","","","","","","","","","","","","","","","","","","","feedback_test"
"","","","","","psychophysics","196","602489","0.0-10.0-0.0-0.0-0.0-0.28","848","","j","","","","","","","","","","","","","key","j","6.061167763157803","853.3333333333334","476","j","true","img/H_ambi40.png","自我","same",""
"","","","","","html-keyboard-response","197","602994","0.0-10.0-0.0-0.0-0.0-1.28","null","<span style='color:GreenYellow; font-size: 70px;'>正确! </span>","null","","","","","","","","","","","","","","","","","","","","","","","feedback_test"
"","","","","","psychophysics","198","604531","0.0-10.0-0.0-0.0-0.0-0.29","532","","f","","","","","","","","","","","","","key","f","6.060833333333167","853.3333333333334","476","f","true","img/C_ambi40.png","自我","same",""
"","","","","","html-keyboard-response","199","605046","0.0-10.0-0.0-0.0-0.0-1.29","null","<span style='color:GreenYellow; font-size: 70px;'>正确! </span>","null","","","","","","","","","","","","","","","","","","","","","","","feedback_test"
"","","","","","psychophysics","200","606627","0.0-10.0-0.0-0.0-0.0-0.30","579","","f","","","","","","","","","","","","","key","f","6.060571428571295","853.3333333333334","476","f","true","img/C_ambi40.png","自我","same",""
"","","","","","html-keyboard-response","201","607137","0.0-10.0-0.0-0.0-0.0-1.30","null","<span style='color:GreenYellow; font-size: 70px;'>正确! </span>","null","","","","","","","","","","","","","","","","","","","","","","","feedback_test"
"","","","","","psychophysics","202","608705","0.0-10.0-0.0-0.0-0.0-0.31","567","","j","","","","","","","","","","","","","key","j","6.05117578124964","853.3333333333334","476","j","true","img/T_ambi40.png","をる","same",""
"","","","","","html-keyboard-response","203","609214","0.0-10.0-0.0-0.0-0.0-1.31","null","<span style='color:GreenYellow; font-size: 70px;'>正确! </span>","null","","","","","","","","","","","","","","","","","","","","","","","feedback_test"
"","","","","","psychophysics","204","610641","0.0-10.0-0.0-0.0-0.0-0.32","425","","f","","","","","","","","","","","","","key","f","6.053659482758717","853.3333333333334","476","f","true","img/C_ambi40.png","自我","same",""
"","","","","","html-keyboard-response","205","611158","0.0-10.0-0.0-0.0-0.0-1.32","null","<span style='color:GreenYellow; font-size: 70px;'>正确! </span>","null","","","","","","","","","","","","","","","","","","","","","","","feedback_test"
"","","","","","psychophysics","206","612902","0.0-10.0-0.0-0.0-0.0-0.33","742","","j","","","","","","","","","","","","","key","j","6.061219512194944","853.3333333333334","476","f","false","img/S_ambi40.png","朋友","same",""
"","","","","","html-keyboard-response","207","613410","0.0-10.0-0.0-0.0-0.0-1.33","null","<span style='color:red; font-size: 70px;'>错误! </span>","null","","","","","","","","","","","","","","","","","","","","","","","feedback_test"
"","","","","","psychophysics","208","615123","0.0-10.0-0.0-0.0-0.0-0.34","711","","j","","","","","","","","","","","","","key","j","6.060787234042527","853.3333333333334","476","j","true","img/C_ambi40.png","生人","same",""
"","","","","","html-keyboard-response","209","615639","0.0-10.0-0.0-0.0-0.0-1.34","null","<span style='color:GreenYellow; font-size: 70px;'>正确! </span>","null","","","","","","","","","","","","","","","","","","","","","","","feedback_test"
"","","","","","psychophysics","210","617785","0.0-10.0-0.0-0.0-0.0-0.35","1144","","j","","","","","","","","","","","","","key","j","6.112206896551919","853.3333333333334","476","j","true","img/C_ambi40.png","朋友","same",""
"","","","","","html-keyboard-response","211","618295","0.0-10.0-0.0-0.0-0.0-1.35","null","<span style='color:GreenYellow; font-size: 70px;'>正确! </span>","null","","","","","","","","","","","","","","","","","","","","","","","feedback_test"
"","","","","","psychophysics","212","619839","0.0-10.0-0.0-0.0-0.0-0.36","543","","f","","","","","","","","","","","","","key","f","6.084644268774851","853.3333333333334","476","f","true","img/C_ambi40.png","自我","same",""
"","","","","","html-keyboard-response","213","620351","0.0-10.0-0.0-0.0-0.0-1.36","null","<span style='color:GreenYellow; font-size: 70px;'>正确! </span>","null","","","","","","","","","","","","","","","","","","","","","","","feedback_test"
"","","","","","psychophysics","214","621882","0.0-10.0-0.0-0.0-0.0-0.37","531","","f","","","","","","","","","","","","","key","f","6.061386454183018","853.3333333333334","476","j","false","img/C_ambi40.png","朋友","same",""
"","","","","","html-keyboard-response","215","622395","0.0-10.0-0.0-0.0-0.0-1.37","null","<span style='color:red; font-size: 70px;'>错误! </span>","null","","","","","","","","","","","","","","","","","","","","","","","feedback_test"
"","","","","","psychophysics","216","624244","0.0-10.0-0.0-0.0-0.0-0.38","845","","j","","","","","","","","","","","","","key","j","6.100473509933753","853.3333333333334","476","j","true","img/C_ambi40.png","生人","same",""
"","","","","","html-keyboard-response","217","624751","0.0-10.0-0.0-0.0-0.0-1.38","null","<span style='color:GreenYellow; font-size: 70px;'>正确! </span>","null","","","","","","","","","","","","","","","","","","","","","","","feedback_test"
"","","","","","psychophysics","218","626463","0.0-10.0-0.0-0.0-0.0-0.39","711","","f","","","","","","","","","","","","","key","f","6.060096085409624","853.3333333333334","476","f","true","img/S_ambi40.png","朋友","same",""
"","","","","","html-keyboard-response","219","626967","0.0-10.0-0.0-0.0-0.0-1.39","null","<span style='color:GreenYellow; font-size: 70px;'>正确! </span>","null","","","","","","","","","","","","","","","","","","","","","","","feedback_test"
"","","","","","psychophysics","220","628572","0.0-10.0-0.0-0.0-0.0-0.40","603","","j","","","","","","","","","","","","","key","j","6.094419230769227","853.3333333333334","476","j","true","img/S_ambi40.png","生人","same",""
"","","","","","html-keyboard-response","221","629074","0.0-10.0-0.0-0.0-0.0-1.40","null","<span style='color:GreenYellow; font-size: 70px;'>正确! </span>","null","","","","","","","","","","","","","","","","","","","","","","","feedback_test"
"","","","","","psychophysics","222","631027","0.0-10.0-0.0-0.0-0.0-0.41","949","","j","","","","","","","","","","","","","key","j","6.098540625000169","853.3333333333334","476","f","false","img/S_ambi40.png","朋友","same",""
"","","","","","html-keyboard-response","223","631536","0.0-10.0-0.0-0.0-0.0-1.41","null","<span style='color:red; font-size: 70px;'>错误! </span>","null","","","","","","","","","","","","","","","","","","","","","","","feedback_test"
"","","","","","psychophysics","224","633134","0.0-10.0-0.0-0.0-0.0-0.42","596","","f","","","","","","","","","","","","","key","f","6.060615969581898","853.3333333333334","476","f","true","img/C_ambi40.png","自我","same",""
"","","","","","html-keyboard-response","225","633641","0.0-10.0-0.0-0.0-0.0-1.42","null","<span style='color:GreenYellow; font-size: 70px;'>正确! </span>","null","","","","","","","","","","","","","","","","","","","","","","","feedback_test"
"","","","","","psychophysics","226","635700","0.0-10.0-0.0-0.0-0.0-0.43","1058","","j","","","","","","","","","","","","","key","j","6.060758112094593","853.3333333333334","476","j","true","img/S_ambi40.png","自我","same",""
"","","","","","html-keyboard-response","227","636201","0.0-10.0-0.0-0.0-0.0-1.43","null","<span style='color:GreenYellow; font-size: 70px;'>正确! </span>","null","","","","","","","","","","","","","","","","","","","","","","","feedback_test"
"","","","","","psychophysics","228","637706","0.0-10.0-0.0-0.0-0.0-0.44","501","","f","","","","","","","","","","","","","key","f","6.058930612244757","853.3333333333334","476","f","true","img/H_ambi40.png","生人","same",""
"","","","","","html-keyboard-response","229","638218","0.0-10.0-0.0-0.0-0.0-1.44","null","<span style='color:GreenYellow; font-size: 70px;'>正确! </span>","null","","","","","","","","","","","","","","","","","","","","","","","feedback_test"
"","","","","","psychophysics","230","639864","0.0-10.0-0.0-0.0-0.0-0.45","645","","f","","","","","","","","","","","","","key","f","6.063125461254465","853.3333333333334","476","f","true","img/C_ambi40.png","自我","same",""
"","","","","","html-keyboard-response","231","640379","0.0-10.0-0.0-0.0-0.0-1.45","null","<span style='color:GreenYellow; font-size: 70px;'>正确! </span>","null","","","","","","","","","","","","","","","","","","","","","","","feedback_test"
"","","","","","psychophysics","232","642050","0.0-10.0-0.0-0.0-0.0-0.46","670","","f","","","","","","","","","","","","","key","f","6.060138686131397","853.3333333333334","476","f","true","img/S_ambi40.png","朋友","same",""
"","","","","","html-keyboard-response","233","642561","0.0-10.0-0.0-0.0-0.0-1.46","null","<span style='color:GreenYellow; font-size: 70px;'>正确! </span>","null","","","","","","","","","","","","","","","","","","","","","","","feedback_test"
"","","","","","psychophysics","234","644313","0.0-10.0-0.0-0.0-0.0-0.47","750","","j","","","","","","","","","","","","","key","j","6.061243902438788","853.3333333333334","476","j","true","img/H_ambi40.png","自我","same",""
"","","","","","html-keyboard-response","235","644823","0.0-10.0-0.0-0.0-0.0-1.47","null","<span style='color:GreenYellow; font-size: 70px;'>正确! </span>","null","","","","","","","","","","","","","","","","","","","","","","","feedback_test"
"","","","","","psychophysics","236","646506","0.0-10.0-0.0-0.0-0.0-0.48","681","","j","","","","","","","","","","","","","key","j","6.0630505415161275","853.3333333333334","476","j","true","img/T_ambi40.png","をる","same",""
"","","","","","html-keyboard-response","237","647007","0.0-10.0-0.0-0.0-0.0-1.48","null","<span style='color:GreenYellow; font-size: 70px;'>正确! </span>","null","","","","","","","","","","","","","","","","","","","","","","","feedback_test"
"","","","","","psychophysics","238","648629","0.0-10.0-0.0-0.0-0.0-0.49","617","","f","","","","","","","","","","","","","key","f","6.061289473684046","853.3333333333334","476","f","true","img/H_ambi40.png","生人","same",""
"","","","","","html-keyboard-response","239","649134","0.0-10.0-0.0-0.0-0.0-1.49","null","<span style='color:GreenYellow; font-size: 70px;'>正确! </span>","null","","","","","","","","","","","","","","","","","","","","","","","feedback_test"
"","","","","","psychophysics","240","650809","0.0-10.0-0.0-0.0-0.0-0.50","672","","f","","","","","","","","","","","","","key","f","6.060265454545363","853.3333333333334","476","f","true","img/H_ambi40.png","生人","same",""
"","","","","","html-keyboard-response","241","651318","0.0-10.0-0.0-0.0-0.0-1.50","null","<span style='color:GreenYellow; font-size: 70px;'>正确! </span>","null","","","","","","","","","","","","","","","","","","","","","","","feedback_test"
"","","","","","psychophysics","242","652880","0.0-10.0-0.0-0.0-0.0-0.51","562","","j","","","","","","","","","","","","","key","j","6.06002734374988","853.3333333333334","476","j","true","img/T_ambi40.png","をる","same",""
"","","","","","html-keyboard-response","243","653391","0.0-10.0-0.0-0.0-0.0-1.51","null","<span style='color:GreenYellow; font-size: 70px;'>正确! </span>","null","","","","","","","","","","","","","","","","","","","","","","","feedback_test"
"","","","","","psychophysics","244","654983","0.0-10.0-0.0-0.0-0.0-0.52","590","","j","","","","","","","","","","","","","key","j","6.061232824427723","853.3333333333334","476","j","true","img/T_ambi40.png","をる","same",""
"","","","","","html-keyboard-response","245","655495","0.0-10.0-0.0-0.0-0.0-1.52","null","<span style='color:GreenYellow; font-size: 70px;'>正确! </span>","null","","","","","","","","","","","","","","","","","","","","","","","feedback_test"
"","","","","","psychophysics","246","657287","0.0-10.0-0.0-0.0-0.0-0.53","791","","j","","","","","","","","","","","","","key","j","6.059945578231131","853.3333333333334","476","j","true","img/H_ambi40.png","朋友","same",""
"","","","","","html-keyboard-response","247","657788","0.0-10.0-0.0-0.0-0.0-1.53","null","<span style='color:GreenYellow; font-size: 70px;'>正确! </span>","null","","","","","","","","","","","","","","","","","","","","","","","feedback_test"
"","","","","","psychophysics","248","659468","0.0-10.0-0.0-0.0-0.0-0.54","677","","j","","","","","","","","","","","","","key","j","6.060673913043212","853.3333333333334","476","j","true","img/T_ambi40.png","をる","same",""
"","","","","","html-keyboard-response","249","659977","0.0-10.0-0.0-0.0-0.0-1.54","null","<span style='color:GreenYellow; font-size: 70px;'>正确! </span>","null","","","","","","","","","","","","","","","","","","","","","","","feedback_test"
"","","","","","psychophysics","250","661827","0.0-10.0-0.0-0.0-0.0-0.55","846","","j","","","","","","","","","","","","","key","j","6.0606032786887045","853.3333333333334","476","f","false","img/H_ambi40.png","生人","same",""
"","","","","","html-keyboard-response","251","662337","0.0-10.0-0.0-0.0-0.0-1.55","null","<span style='color:red; font-size: 70px;'>错误! </span>","null","","","","","","","","","","","","","","","","","","","","","","","feedback_test"
"","","","","","psychophysics","252","663900","0.0-10.0-0.0-0.0-0.0-0.56","562","","j","","","","","","","","","","","","","key","j","6.060207031250229","853.3333333333334","476","j","true","img/T_ambi40.png","をる","same",""
"","","","","","html-keyboard-response","253","664406","0.0-10.0-0.0-0.0-0.0-1.56","null","<span style='color:GreenYellow; font-size: 70px;'>正确! </span>","null","","","","","","","","","","","","","","","","","","","","","","","feedback_test"
"","","","","","psychophysics","254","665978","0.0-10.0-0.0-0.0-0.0-0.57","569","","f","","","","","","","","","","","","","key","f","6.060426356589472","853.3333333333334","476","f","true","img/C_ambi40.png","自我","same",""
"","","","","","html-keyboard-response","255","666493","0.0-10.0-0.0-0.0-0.0-1.57","null","<span style='color:GreenYellow; font-size: 70px;'>正确! </span>","null","","","","","","","","","","","","","","","","","","","","","","","feedback_test"
"","","","","","psychophysics","256","668067","0.0-10.0-0.0-0.0-0.0-0.58","571","","f","","","","","","","","","","","","","key","f","6.061880308880316","853.3333333333334","476","j","false","img/C_ambi40.png","朋友","same",""
"","","","","","html-keyboard-response","257","668578","0.0-10.0-0.0-0.0-0.0-1.58","null","<span style='color:red; font-size: 70px;'>错误! </span>","null","","","","","","","","","","","","","","","","","","","","","","","feedback_test"
"","","","","","psychophysics","258","670283","0.0-10.0-0.0-0.0-0.0-0.59","703","","f","","","","","","","","","","","","","key","f","6.059856630824624","853.3333333333334","476","f","true","img/C_ambi40.png","自我","same",""
"","","","","","html-keyboard-response","259","670792","0.0-10.0-0.0-0.0-0.0-1.59","null","<span style='color:GreenYellow; font-size: 70px;'>正确! </span>","null","","","","","","","","","","","","","","","","","","","","","","","feedback_test"
"","","","","","psychophysics","260","672610","0.0-10.0-0.0-0.0-0.0-0.60","817","","j","","","","","","","","","","","","","key","j","6.060697986577144","853.3333333333334","476","j","true","img/H_ambi40.png","自我","same",""
"","","","","","html-keyboard-response","261","673113","0.0-10.0-0.0-0.0-0.0-1.60","null","<span style='color:GreenYellow; font-size: 70px;'>正确! </span>","null","","","","","","","","","","","","","","","","","","","","","","","feedback_test"
"","","","","","psychophysics","262","674867","0.0-10.0-0.0-0.0-0.0-0.61","752","","j","","","","","","","","","","","","","key","j","6.060131944444341","853.3333333333334","476","j","true","img/S_ambi40.png","自我","same",""
"","","","","","html-keyboard-response","263","675382","0.0-10.0-0.0-0.0-0.0-1.61","null","<span style='color:GreenYellow; font-size: 70px;'>正确! </span>","null","","","","","","","","","","","","","","","","","","","","","","","feedback_test"
"","","","","","psychophysics","264","676972","0.0-10.0-0.0-0.0-0.0-0.62","590","","f","","","","","","","","","","","","","key","f","6.060919540229975","853.3333333333334","476","f","true","img/S_ambi40.png","朋友","same",""
"","","","","","html-keyboard-response","265","677474","0.0-10.0-0.0-0.0-0.0-1.62","null","<span style='color:GreenYellow; font-size: 70px;'>正确! </span>","null","","","","","","","","","","","","","","","","","","","","","","","feedback_test"
"","","","","","psychophysics","266","678939","0.0-10.0-0.0-0.0-0.0-0.63","462","","f","","","","","","","","","","","","","key","f","6.061029045643088","853.3333333333334","476","j","false","img/T_ambi40.png","をる","same",""
"","","","","","html-keyboard-response","267","679447","0.0-10.0-0.0-0.0-0.0-1.63","null","<span style='color:red; font-size: 70px;'>错误! </span>","null","","","","","","","","","","","","","","","","","","","","","","","feedback_test"
"","","","","","psychophysics","268","681234","0.0-10.0-0.0-0.0-0.0-0.64","786","","j","","","","","","","","","","","","","key","j","6.060027303754228","853.3333333333334","476","f","false","img/S_ambi40.png","朋友","same",""
"","","","","","html-keyboard-response","269","681745","0.0-10.0-0.0-0.0-0.0-1.64","null","<span style='color:red; font-size: 70px;'>错误! </span>","null","","","","","","","","","","","","","","","","","","","","","","","feedback_test"
"","","","","","psychophysics","270","683480","0.0-10.0-0.0-0.0-0.0-0.65","735","","f","","","","","","","","","","","","","key","f","6.060825174825406","853.3333333333334","476","f","true","img/S_ambi40.png","朋友","same",""
"","","","","","html-keyboard-response","271","683987","0.0-10.0-0.0-0.0-0.0-1.65","null","<span style='color:GreenYellow; font-size: 70px;'>正确! </span>","null","","","","","","","","","","","","","","","","","","","","","","","feedback_test"
"","","","","","psychophysics","272","685591","0.0-10.0-0.0-0.0-0.0-0.66","599","","f","","","","","","","","","","","","","key","f","6.060378787878577","853.3333333333334","476","f","true","img/H_ambi40.png","生人","same",""
"","","","","","html-keyboard-response","273","686095","0.0-10.0-0.0-0.0-0.0-1.66","null","<span style='color:GreenYellow; font-size: 70px;'>正确! </span>","null","","","","","","","","","","","","","","","","","","","","","","","feedback_test"
"","","","","","psychophysics","274","687915","0.0-10.0-0.0-0.0-0.0-0.67","819","","f","","","","","","","","","","","","","key","f","6.060177257525139","853.3333333333334","476","f","true","img/H_ambi40.png","生人","same",""
"","","","","","html-keyboard-response","275","688430","0.0-10.0-0.0-0.0-0.0-1.67","null","<span style='color:GreenYellow; font-size: 70px;'>正确! </span>","null","","","","","","","","","","","","","","","","","","","","","","","feedback_test"
"","","","","","psychophysics","276","690166","0.0-10.0-0.0-0.0-0.0-0.68","732","","j","","","","","","","","","","","","","key","j","6.060562937062924","853.3333333333334","476","j","true","img/C_ambi40.png","生人","same",""
"","","","","","html-keyboard-response","277","690669","0.0-10.0-0.0-0.0-0.0-1.68","null","<span style='color:GreenYellow; font-size: 70px;'>正确! </span>","null","","","","","","","","","","","","","","","","","","","","","","","feedback_test"
"","","","","","psychophysics","278","692731","0.0-10.0-0.0-0.0-0.0-0.69","1060","","j","","","","","","","","","","","","","key","j","6.0606076696167825","853.3333333333334","476","j","true","img/S_ambi40.png","生人","same",""
"","","","","","html-keyboard-response","279","693232","0.0-10.0-0.0-0.0-0.0-1.69","null","<span style='color:GreenYellow; font-size: 70px;'>正确! </span>","null","","","","","","","","","","","","","","","","","","","","","","","feedback_test"
"","","","","","psychophysics","280","695095","0.0-10.0-0.0-0.0-0.0-0.70","860","","j","","","","","","","","","","","","","key","j","6.101173770491828","853.3333333333334","476","j","true","img/H_ambi40.png","朋友","same",""
"","","","","","html-keyboard-response","281","695607","0.0-10.0-0.0-0.0-0.0-1.70","null","<span style='color:GreenYellow; font-size: 70px;'>正确! </span>","null","","","","","","","","","","","","","","","","","","","","","","","feedback_test"
"","","","","","psychophysics","282","697239","0.0-10.0-0.0-0.0-0.0-0.71","629","","f","","","","","","","","","","","","","key","f","6.060429104477421","853.3333333333334","476","f","true","img/C_ambi40.png","自我","same",""
"","","","","","html-keyboard-response","283","697751","0.0-10.0-0.0-0.0-0.0-1.71","null","<span style='color:GreenYellow; font-size: 70px;'>正确! </span>","null","","","","","","","","","","","","","","","","","","","","","","","feedback_test"
"","","","","","psychophysics","284","699342","0.0-10.0-0.0-0.0-0.0-0.72","586","","f","","","","","","","","","","","","","key","f","6.062122137404851","853.3333333333334","476","f","true","img/H_ambi40.png","生人","same",""
"","","","","","html-keyboard-response","285","699848","0.0-10.0-0.0-0.0-0.0-1.72","null","<span style='color:GreenYellow; font-size: 70px;'>正确! </span>","null","","","","","","","","","","","","","","","","","","","","","","","feedback_test"
"","","","","","psychophysics","286","701438","0.0-10.0-0.0-0.0-0.0-0.73","586","","f","","","","","","","","","","","","","key","f","6.060567049808725","853.3333333333334","476","f","true","img/H_ambi40.png","生人","same",""
"","","","","","html-keyboard-response","287","701943","0.0-10.0-0.0-0.0-0.0-1.73","null","<span style='color:GreenYellow; font-size: 70px;'>正确! </span>","null","","","","","","","","","","","","","","","","","","","","","","","feedback_test"
"","","","","","psychophysics","288","703612","0.0-10.0-0.0-0.0-0.0-0.74","668","","f","","","","","","","","","","","","","key","f","6.061541818181815","853.3333333333334","476","f","true","img/C_ambi40.png","自我","same",""
"","","","","","html-keyboard-response","289","704119","0.0-10.0-0.0-0.0-0.0-1.74","null","<span style='color:GreenYellow; font-size: 70px;'>正确! </span>","null","","","","","","","","","","","","","","","","","","","","","","","feedback_test"
"","","","","","psychophysics","290","705599","0.0-10.0-0.0-0.0-0.0-0.75","479","","f","","","","","","","","","","","","","key","f","6.060561983471386","853.3333333333334","476","f","true","img/C_ambi40.png","自我","same",""
"","","","","","html-keyboard-response","291","706106","0.0-10.0-0.0-0.0-0.0-1.75","null","<span style='color:GreenYellow; font-size: 70px;'>正确! </span>","null","","","","","","","","","","","","","","","","","","","","","","","feedback_test"
"","","","","","psychophysics","292","707778","0.0-10.0-0.0-0.0-0.0-0.76","669","","f","","","","","","","","","","","","","key","f","6.05232234432229","853.3333333333334","476","f","true","img/S_ambi40.png","朋友","same",""
"","","","","","html-keyboard-response","293","708286","0.0-10.0-0.0-0.0-0.0-1.76","null","<span style='color:GreenYellow; font-size: 70px;'>正确! </span>","null","","","","","","","","","","","","","","","","","","","","","","","feedback_test"
"","","","","","psychophysics","294","709742","0.0-10.0-0.0-0.0-0.0-0.77","452","","f","","","","","","","","","","","","","key","f","6.086373949579957","853.3333333333334","476","j","false","img/C_ambi40.png","朋友","same",""
"","","","","","html-keyboard-response","295","710255","0.0-10.0-0.0-0.0-0.0-1.77","null","<span style='color:red; font-size: 70px;'>错误! </span>","null","","","","","","","","","","","","","","","","","","","","","","","feedback_test"
"","","","","","psychophysics","296","711810","0.0-10.0-0.0-0.0-0.0-0.78","554","","f","","","","","","","","","","","","","key","f","6.060842519685146","853.3333333333334","476","j","false","img/H_ambi40.png","自我","same",""
"","","","","","html-keyboard-response","297","712325","0.0-10.0-0.0-0.0-0.0-1.78","null","<span style='color:red; font-size: 70px;'>错误! </span>","null","","","","","","","","","","","","","","","","","","","","","","","feedback_test"
"","","","","","psychophysics","298","714038","0.0-10.0-0.0-0.0-0.0-0.79","713","","j","","","","","","","","","","","","","key","j","6.060544483985891","853.3333333333334","476","j","true","img/S_ambi40.png","生人","same",""
"","","","","","html-keyboard-response","299","714553","0.0-10.0-0.0-0.0-0.0-1.79","null","<span style='color:GreenYellow; font-size: 70px;'>正确! </span>","null","","","","","","","","","","","","","","","","","","","","","","","feedback_test"
"","","","","","psychophysics","300","716298","0.0-10.0-0.0-0.0-0.0-0.80","736","","j","","","","","","","","","","","","","key","j","6.060533101045371","853.3333333333334","476","j","true","img/S_ambi40.png","自我","same",""
"","","","","","html-keyboard-response","301","716805","0.0-10.0-0.0-0.0-0.0-1.80","null","<span style='color:GreenYellow; font-size: 70px;'>正确! </span>","null","","","","","","","","","","","","","","","","","","","","","","","feedback_test"
"","","","","","psychophysics","302","718614","0.0-10.0-0.0-0.0-0.0-0.81","808","","j","","","","","","","","","","","","","key","j","6.061013422818892","853.3333333333334","476","j","true","img/H_ambi40.png","朋友","same",""
"","","","","","html-keyboard-response","303","719122","0.0-10.0-0.0-0.0-0.0-1.81","null","<span style='color:GreenYellow; font-size: 70px;'>正确! </span>","null","","","","","","","","","","","","","","","","","","","","","","","feedback_test"
"","","","","","psychophysics","304","720740","0.0-10.0-0.0-0.0-0.0-0.82","614","","f","","","","","","","","","","","","","key","f","6.060815789473779","853.3333333333334","476","f","true","img/H_ambi40.png","生人","same",""
"","","","","","html-keyboard-response","305","721246","0.0-10.0-0.0-0.0-0.0-1.82","null","<span style='color:GreenYellow; font-size: 70px;'>正确! </span>","null","","","","","","","","","","","","","","","","","","","","","","","feedback_test"
"","","","","","psychophysics","306","722684","0.0-10.0-0.0-0.0-0.0-0.83","437","","f","","","","","","","","","","","","","key","f","6.060531914894013","853.3333333333334","476","f","true","img/C_ambi40.png","自我","same",""
"","","","","","html-keyboard-response","307","723197","0.0-10.0-0.0-0.0-0.0-1.83","null","<span style='color:GreenYellow; font-size: 70px;'>正确! </span>","null","","","","","","","","","","","","","","","","","","","","","","","feedback_test"
"","","","","","psychophysics","308","724735","0.0-10.0-0.0-0.0-0.0-0.84","537","","f","","","","","","","","","","","","","key","f","6.060699604743385","853.3333333333334","476","f","true","img/S_ambi40.png","朋友","same",""
"","","","","","html-keyboard-response","309","725244","0.0-10.0-0.0-0.0-0.0-1.84","null","<span style='color:GreenYellow; font-size: 70px;'>正确! </span>","null","","","","","","","","","","","","","","","","","","","","","","","feedback_test"
"","","","","","psychophysics","310","726742","0.0-10.0-0.0-0.0-0.0-0.85","496","","j","","","","","","","","","","","","","key","j","6.061524390243467","853.3333333333334","476","j","true","img/T_ambi40.png","をる","same",""
"","","","","","html-keyboard-response","311","727246","0.0-10.0-0.0-0.0-0.0-1.85","null","<span style='color:GreenYellow; font-size: 70px;'>正确! </span>","null","","","","","","","","","","","","","","","","","","","","","","","feedback_test"
"","","","","","psychophysics","312","729032","0.0-10.0-0.0-0.0-0.0-0.86","785","","j","","","","","","","","","","","","","key","j","6.059962457337547","853.3333333333334","476","f","false","img/S_ambi40.png","朋友","same",""
"","","","","","html-keyboard-response","313","729539","0.0-10.0-0.0-0.0-0.0-1.86","null","<span style='color:red; font-size: 70px;'>错误! </span>","null","","","","","","","","","","","","","","","","","","","","","","","feedback_test"
"","","","","","psychophysics","314","731142","0.0-10.0-0.0-0.0-0.0-0.87","601","","j","","","","","","","","","","","","","key","j","6.060163498098763","853.3333333333334","476","j","true","img/T_ambi40.png","をる","same",""
"","","","","","html-keyboard-response","315","731647","0.0-10.0-0.0-0.0-0.0-1.87","null","<span style='color:GreenYellow; font-size: 70px;'>正确! </span>","null","","","","","","","","","","","","","","","","","","","","","","","feedback_test"
"","","","","","psychophysics","316","733342","0.0-10.0-0.0-0.0-0.0-0.88","694","","f","","","","","","","","","","","","","key","f","6.0604551971329235","853.3333333333334","476","j","false","img/C_ambi40.png","生人","same",""
"","","","","","html-keyboard-response","317","733854","0.0-10.0-0.0-0.0-0.0-1.88","null","<span style='color:red; font-size: 70px;'>错误! </span>","null","","","","","","","","","","","","","","","","","","","","","","","feedback_test"
"","","","","","psychophysics","318","735344","0.0-10.0-0.0-0.0-0.0-0.89","486","","j","","","","","","","","","","","","","key","j","6.1110740740742315","853.3333333333334","476","j","true","img/T_ambi40.png","をる","same",""
"","","","","","html-keyboard-response","319","735852","0.0-10.0-0.0-0.0-0.0-1.89","null","<span style='color:GreenYellow; font-size: 70px;'>正确! </span>","null","","","","","","","","","","","","","","","","","","","","","","","feedback_test"
"","","","","","psychophysics","320","737694","0.0-10.0-0.0-0.0-0.0-0.90","841","","j","","","","","","","","","","","","","key","j","6.061496688741867","853.3333333333334","476","j","true","img/H_ambi40.png","自我","same",""
"","","","","","html-keyboard-response","321","738201","0.0-10.0-0.0-0.0-0.0-1.90","null","<span style='color:GreenYellow; font-size: 70px;'>正确! </span>","null","","","","","","","","","","","","","","","","","","","","","","","feedback_test"
"","","","","","psychophysics","322","739881","0.0-10.0-0.0-0.0-0.0-0.91","677","","f","","","","","","","","","","","","","key","f","6.060318840579872","853.3333333333334","476","f","true","img/S_ambi40.png","朋友","same",""
"","","","","","html-keyboard-response","323","740383","0.0-10.0-0.0-0.0-0.0-1.91","null","<span style='color:GreenYellow; font-size: 70px;'>正确! </span>","null","","","","","","","","","","","","","","","","","","","","","","","feedback_test"
"","","","","","psychophysics","324","742027","0.0-10.0-0.0-0.0-0.0-0.92","642","","j","","","","","","","","","","","","","key","j","6.060892592592562","853.3333333333334","476","j","true","img/S_ambi40.png","自我","same",""
"","","","","","html-keyboard-response","325","742543","0.0-10.0-0.0-0.0-0.0-1.92","null","<span style='color:GreenYellow; font-size: 70px;'>正确! </span>","null","","","","","","","","","","","","","","","","","","","","","","","feedback_test"
"","","","","","psychophysics","326","744226","0.0-10.0-0.0-0.0-0.0-0.93","682","","f","","","","","","","","","","","","","key","f","6.060409420289679","853.3333333333334","476","j","false","img/C_ambi40.png","生人","same",""
"","","","","","html-keyboard-response","327","744741","0.0-10.0-0.0-0.0-0.0-1.93","null","<span style='color:red; font-size: 70px;'>错误! </span>","null","","","","","","","","","","","","","","","","","","","","","","","feedback_test"
"","","","","","psychophysics","328","746910","0.0-10.0-0.0-0.0-0.0-0.94","1166","","f","","","","","","","","","","","","","key","f","6.060204481792764","853.3333333333334","476","f","true","img/S_ambi40.png","朋友","same",""
"","","","","","html-keyboard-response","329","747412","0.0-10.0-0.0-0.0-0.0-1.94","null","<span style='color:GreenYellow; font-size: 70px;'>正确! </span>","null","","","","","","","","","","","","","","","","","","","","","","","feedback_test"
"","","","","","psychophysics","330","749171","0.0-10.0-0.0-0.0-0.0-0.95","755","","j","","","","","","","","","","","","","key","j","6.060186851210973","853.3333333333334","476","j","true","img/S_ambi40.png","生人","same",""
"","","","","","html-keyboard-response","331","749680","0.0-10.0-0.0-0.0-0.0-1.95","null","<span style='color:GreenYellow; font-size: 70px;'>正确! </span>","null","","","","","","","","","","","","","","","","","","","","","","","feedback_test"
"","","","","","psychophysics","332","751303","0.0-10.0-0.0-0.0-0.0-0.96","620","","f","","","","","","","","","","","","","key","f","6.084744360902315","853.3333333333334","476","f","true","img/C_ambi40.png","自我","same",""
"","","","","","html-keyboard-response","333","751816","0.0-10.0-0.0-0.0-0.0-1.96","null","<span style='color:GreenYellow; font-size: 70px;'>正确! </span>","null","","","","","","","","","","","","","","","","","","","","","","","feedback_test"
"","","","","","psychophysics","334","753409","0.0-10.0-0.0-0.0-0.0-0.97","591","","f","","","","","","","","","","","","","key","f","6.059958015267297","853.3333333333334","476","f","true","img/H_ambi40.png","生人","same",""
"","","","","","html-keyboard-response","335","753923","0.0-10.0-0.0-0.0-0.0-1.97","null","<span style='color:GreenYellow; font-size: 70px;'>正确! </span>","null","","","","","","","","","","","","","","","","","","","","","","","feedback_test"
"","","","","","psychophysics","336","755442","0.0-10.0-0.0-0.0-0.0-0.98","517","","j","","","","","","","","","","","","","key","j","6.060333333333513","853.3333333333334","476","j","true","img/T_ambi40.png","をる","same",""
"","","","","","html-keyboard-response","337","755949","0.0-10.0-0.0-0.0-0.0-1.98","null","<span style='color:GreenYellow; font-size: 70px;'>正确! </span>","null","","","","","","","","","","","","","","","","","","","","","","","feedback_test"
"","","","","","psychophysics","338","757682","0.0-10.0-0.0-0.0-0.0-0.99","732","","j","","","","","","","","","","","","","key","j","6.060806338028067","853.3333333333334","476","j","true","img/C_ambi40.png","朋友","same",""
"","","","","","html-keyboard-response","339","758189","0.0-10.0-0.0-0.0-0.0-1.99","null","<span style='color:GreenYellow; font-size: 70px;'>正确! </span>","null","","","","","","","","","","","","","","","","","","","","","","","feedback_test"
"","","","","","psychophysics","340","759770","0.0-10.0-0.0-0.0-0.0-0.100","578","","j","","","","","","","","","","","","","key","j","6.059861538461589","853.3333333333334","476","j","true","img/T_ambi40.png","をる","same",""
"","","","","","html-keyboard-response","341","760286","0.0-10.0-0.0-0.0-0.0-1.100","null","<span style='color:GreenYellow; font-size: 70px;'>正确! </span>","null","","","","","","","","","","","","","","","","","","","","","","","feedback_test"
"","","","","","psychophysics","342","761982","0.0-10.0-0.0-0.0-0.0-0.101","694","","f","","","","","","","","","","","","","key","f","6.050689530685807","853.3333333333334","476","f","true","img/S_ambi40.png","朋友","same",""
"","","","","","html-keyboard-response","343","762491","0.0-10.0-0.0-0.0-0.0-1.101","null","<span style='color:GreenYellow; font-size: 70px;'>正确! </span>","null","","","","","","","","","","","","","","","","","","","","","","","feedback_test"
"","","","","","psychophysics","344","764079","0.0-10.0-0.0-0.0-0.0-0.102","583","","f","","","","","","","","","","","","","key","f","6.060647509578647","853.3333333333334","476","f","true","img/C_ambi40.png","自我","same",""
"","","","","","html-keyboard-response","345","764589","0.0-10.0-0.0-0.0-0.0-1.102","null","<span style='color:GreenYellow; font-size: 70px;'>正确! </span>","null","","","","","","","","","","","","","","","","","","","","","","","feedback_test"
"","","","","","psychophysics","346","766020","0.0-10.0-0.0-0.0-0.0-0.103","429","","f","","","","","","","","","","","","","key","f","6.061527659574107","853.3333333333334","476","f","true","img/H_ambi40.png","生人","same",""
"","","","","","html-keyboard-response","347","766528","0.0-10.0-0.0-0.0-0.0-1.103","null","<span style='color:GreenYellow; font-size: 70px;'>正确! </span>","null","","","","","","","","","","","","","","","","","","","","","","","feedback_test"
"","","","","","psychophysics","348","768050","0.0-10.0-0.0-0.0-0.0-0.104","520","","j","","","","","","","","","","","","","key","j","6.08250400000019","853.3333333333334","476","j","true","img/T_ambi40.png","をる","same",""
"","","","","","html-keyboard-response","349","768563","0.0-10.0-0.0-0.0-0.0-1.104","null","<span style='color:GreenYellow; font-size: 70px;'>正确! </span>","null","","","","","","","","","","","","","","","","","","","","","","","feedback_test"
"","","","","","psychophysics","350","770274","0.0-10.0-0.0-0.0-0.0-0.105","709","","j","","","","","","","","","","","","","key","j","6.059444839857747","853.3333333333334","476","j","true","img/H_ambi40.png","朋友","same",""
"","","","","","html-keyboard-response","351","770780","0.0-10.0-0.0-0.0-0.0-1.105","null","<span style='color:GreenYellow; font-size: 70px;'>正确! </span>","null","","","","","","","","","","","","","","","","","","","","","","","feedback_test"
"","","","","","psychophysics","352","772411","0.0-10.0-0.0-0.0-0.0-0.106","631","","f","","","","","","","","","","","","","key","f","6.060563432835929","853.3333333333334","476","f","true","img/C_ambi40.png","自我","same",""
"","","","","","html-keyboard-response","353","772916","0.0-10.0-0.0-0.0-0.0-1.106","null","<span style='color:GreenYellow; font-size: 70px;'>正确! </span>","null","","","","","","","","","","","","","","","","","","","","","","","feedback_test"
"","","","","","psychophysics","354","774607","0.0-10.0-0.0-0.0-0.0-0.107","688","","f","","","","","","","","","","","","","key","f","6.060809352518086","853.3333333333334","476","f","true","img/H_ambi40.png","生人","same",""
"","","","","","html-keyboard-response","355","775117","0.0-10.0-0.0-0.0-0.0-1.107","null","<span style='color:GreenYellow; font-size: 70px;'>正确! </span>","null","","","","","","","","","","","","","","","","","","","","","","","feedback_test"
"","","","","","html-keyboard-response","356","778889","0.0-10.0-0.0-0.0-1.0","3771","<style>.context{color:white; font-size: 35px; line-height:40px}</style>                          <div><p class='context'>您正确回答了86% 的试次。</p><p class='context'>您的平均反应时为676毫秒。</p><p class='context'>请按任意键进入休息</p></div>"," ","","","","","","","","","","","","","","","","","","","","","","",""
"","","","","","html-button-response","357","819441","0.0-10.0-0.0-0.0-2.0","40551","
                    <p>您当前还剩余5组实验</p>
                    <p>现在是休息时间，当您结束休息后，您可以点击 结束休息 按钮 继续</p>
                    <p>建议休息时间还剩余<span id=""iii"">60</span>秒</p>","0","","","","","","","","","","","","","","","","","","","","","","",""
"","","","","","psychophysics","358","821943","0.0-10.0-0.0-0.0-0.1-0.108","null","","null","","","","","","","","","","","","","key","null","6.060766990291174","853.3333333333334","476","f","false","img/C_ambi40.png","自我","same",""
"","","","","","html-keyboard-response","359","822452","0.0-10.0-0.0-0.0-0.1-1.108","null","<span class='add_' style='color:yellow; font-size: 70px;'> 太慢! </span>","null","","","","","","","","","","","","","","","","","","","","","","","feedback_test"
"","","","","","psychophysics","360","824327","0.0-10.0-0.0-0.0-0.1-0.109","874","","j","","","","","","","","","","","","","key","j","6.058281553397935","853.3333333333334","476","j","true","img/H_ambi40.png","朋友","same",""
"","","","","","html-keyboard-response","361","824833","0.0-10.0-0.0-0.0-0.1-1.109","null","<span style='color:GreenYellow; font-size: 70px;'>正确! </span>","null","","","","","","","","","","","","","","","","","","","","","","","feedback_test"
"","","","","","psychophysics","362","826450","0.0-10.0-0.0-0.0-0.1-0.110","617","","f","","","","","","","","","","","","","key","f","6.059620300752086","853.3333333333334","476","f","true","img/H_ambi40.png","生人","same",""
"","","","","","html-keyboard-response","363","826966","0.0-10.0-0.0-0.0-0.1-1.110","null","<span style='color:GreenYellow; font-size: 70px;'>正确! </span>","null","","","","","","","","","","","","","","","","","","","","","","","feedback_test"
"","","","","","psychophysics","364","828501","0.0-10.0-0.0-0.0-0.1-0.111","534","","j","","","","","","","","","","","","","key","j","6.062324110672095","853.3333333333334","476","j","true","img/T_ambi40.png","をる","same",""
"","","","","","html-keyboard-response","365","829006","0.0-10.0-0.0-0.0-0.1-1.111","null","<span style='color:GreenYellow; font-size: 70px;'>正确! </span>","null","","","","","","","","","","","","","","","","","","","","","","","feedback_test"
"","","","","","psychophysics","366","830933","0.0-10.0-0.0-0.0-0.1-0.112","923","","f","","","","","","","","","","","","","key","f","6.062706624605394","853.3333333333334","476","f","true","img/S_ambi40.png","朋友","same",""
"","","","","","html-keyboard-response","367","831448","0.0-10.0-0.0-0.0-0.1-1.112","null","<span style='color:GreenYellow; font-size: 70px;'>正确! </span>","null","","","","","","","","","","","","","","","","","","","","","","","feedback_test"
"","","","","","psychophysics","368","832926","0.0-10.0-0.0-0.0-0.1-0.113","475","","j","","","","","","","","","","","","","key","j","6.058431535269929","853.3333333333334","476","j","true","img/T_ambi40.png","をる","same",""
"","","","","","html-keyboard-response","369","833429","0.0-10.0-0.0-0.0-0.1-1.113","null","<span style='color:GreenYellow; font-size: 70px;'>正确! </span>","null","","","","","","","","","","","","","","","","","","","","","","","feedback_test"
"","","","","","psychophysics","370","834999","0.0-10.0-0.0-0.0-0.1-0.114","566","","f","","","","","","","","","","","","","key","f","6.06030620155042","853.3333333333334","476","f","true","img/S_ambi40.png","朋友","same",""
"","","","","","html-keyboard-response","371","835503","0.0-10.0-0.0-0.0-0.1-1.114","null","<span style='color:GreenYellow; font-size: 70px;'>正确! </span>","null","","","","","","","","","","","","","","","","","","","","","","","feedback_test"
"","","","","","psychophysics","372","837139","0.0-10.0-0.0-0.0-0.1-0.115","634","","f","","","","","","","","","","","","","key","f","6.060947955390404","853.3333333333334","476","f","true","img/C_ambi40.png","自我","same",""
"","","","","","html-keyboard-response","373","837644","0.0-10.0-0.0-0.0-0.1-1.115","null","<span style='color:GreenYellow; font-size: 70px;'>正确! </span>","null","","","","","","","","","","","","","","","","","","","","","","","feedback_test"
"","","","","","psychophysics","374","839450","0.0-10.0-0.0-0.0-0.1-0.116","805","","f","","","","","","","","","","","","","key","f","6.060719594594588","853.3333333333334","476","f","true","img/S_ambi40.png","朋友","same",""
"","","","","","html-keyboard-response","375","839953","0.0-10.0-0.0-0.0-0.1-1.116","null","<span style='color:GreenYellow; font-size: 70px;'>正确! </span>","null","","","","","","","","","","","","","","","","","","","","","","","feedback_test"
"","","","","","psychophysics","376","841663","0.0-10.0-0.0-0.0-0.1-0.117","708","","j","","","","","","","","","","","","","key","j","6.0604000000000395","853.3333333333334","476","j","true","img/S_ambi40.png","自我","same",""
"","","","","","html-keyboard-response","377","842178","0.0-10.0-0.0-0.0-0.1-1.117","null","<span style='color:GreenYellow; font-size: 70px;'>正确! </span>","null","","","","","","","","","","","","","","","","","","","","","","","feedback_test"
"","","","","","psychophysics","378","843860","0.0-10.0-0.0-0.0-0.1-0.118","680","","f","","","","","","","","","","","","","key","f","6.0621985559568605","853.3333333333334","476","f","true","img/H_ambi40.png","生人","same",""
"","","","","","html-keyboard-response","379","844370","0.0-10.0-0.0-0.0-0.1-1.118","null","<span style='color:GreenYellow; font-size: 70px;'>正确! </span>","null","","","","","","","","","","","","","","","","","","","","","","","feedback_test"
"","","","","","psychophysics","380","846054","0.0-10.0-0.0-0.0-0.1-0.119","680","","j","","","","","","","","","","","","","key","j","6.060480144404426","853.3333333333334","476","j","true","img/H_ambi40.png","自我","same",""
"","","","","","html-keyboard-response","381","846559","0.0-10.0-0.0-0.0-0.1-1.119","null","<span style='color:GreenYellow; font-size: 70px;'>正确! </span>","null","","","","","","","","","","","","","","","","","","","","","","","feedback_test"
"","","","","","psychophysics","382","848225","0.0-10.0-0.0-0.0-0.1-0.120","664","","j","","","","","","","","","","","","","key","j","6.060787545787443","853.3333333333334","476","j","true","img/C_ambi40.png","朋友","same",""
"","","","","","html-keyboard-response","383","848736","0.0-10.0-0.0-0.0-0.1-1.120","null","<span style='color:GreenYellow; font-size: 70px;'>正确! </span>","null","","","","","","","","","","","","","","","","","","","","","","","feedback_test"
"","","","","","psychophysics","384","850532","0.0-10.0-0.0-0.0-0.1-0.121","794","","f","","","","","","","","","","","","","key","f","6.061064406779547","853.3333333333334","476","f","true","img/H_ambi40.png","生人","same",""
"","","","","","html-keyboard-response","385","851038","0.0-10.0-0.0-0.0-0.1-1.121","null","<span style='color:GreenYellow; font-size: 70px;'>正确! </span>","null","","","","","","","","","","","","","","","","","","","","","","","feedback_test"
"","","","","","psychophysics","386","853048","0.0-10.0-0.0-0.0-0.1-0.122","1008","","f","","","","","","","","","","","","","key","f","6.0609575757576915","853.3333333333334","476","f","true","img/C_ambi40.png","自我","same",""
"","","","","","html-keyboard-response","387","853562","0.0-10.0-0.0-0.0-0.1-1.122","null","<span style='color:GreenYellow; font-size: 70px;'>正确! </span>","null","","","","","","","","","","","","","","","","","","","","","","","feedback_test"
"","","","","","psychophysics","388","855126","0.0-10.0-0.0-0.0-0.1-0.123","563","","j","","","","","","","","","","","","","key","j","6.109019531249942","853.3333333333334","476","j","true","img/T_ambi40.png","をる","same",""
"","","","","","html-keyboard-response","389","855634","0.0-10.0-0.0-0.0-0.1-1.123","null","<span style='color:GreenYellow; font-size: 70px;'>正确! </span>","null","","","","","","","","","","","","","","","","","","","","","","","feedback_test"
"","","","","","psychophysics","390","857288","0.0-10.0-0.0-0.0-0.1-0.124","649","","j","","","","","","","","","","","","","key","j","6.08329999999971","853.3333333333334","476","j","true","img/S_ambi40.png","生人","same",""
"","","","","","html-keyboard-response","391","857794","0.0-10.0-0.0-0.0-0.1-1.124","null","<span style='color:GreenYellow; font-size: 70px;'>正确! </span>","null","","","","","","","","","","","","","","","","","","","","","","","feedback_test"
"","","","","","psychophysics","392","859500","0.0-10.0-0.0-0.0-0.1-0.125","704","","j","","","","","","","","","","","","","key","j","6.060367857142618","853.3333333333334","476","j","true","img/C_ambi40.png","生人","same",""
"","","","","","html-keyboard-response","393","860008","0.0-10.0-0.0-0.0-0.1-1.125","null","<span style='color:GreenYellow; font-size: 70px;'>正确! </span>","null","","","","","","","","","","","","","","","","","","","","","","","feedback_test"
"","","","","","psychophysics","394","861593","0.0-10.0-0.0-0.0-0.1-0.126","581","","f","","","","","","","","","","","","","key","f","6.083517374517126","853.3333333333334","476","f","true","img/S_ambi40.png","朋友","same",""
"","","","","","html-keyboard-response","395","862100","0.0-10.0-0.0-0.0-0.1-1.126","null","<span style='color:GreenYellow; font-size: 70px;'>正确! </span>","null","","","","","","","","","","","","","","","","","","","","","","","feedback_test"
"","","","","","psychophysics","396","863692","0.0-10.0-0.0-0.0-0.1-0.127","590","","f","","","","","","","","","","","","","key","f","6.131825581395569","853.3333333333334","476","f","true","img/S_ambi40.png","朋友","same",""
"","","","","","html-keyboard-response","397","864207","0.0-10.0-0.0-0.0-0.1-1.127","null","<span style='color:GreenYellow; font-size: 70px;'>正确! </span>","null","","","","","","","","","","","","","","","","","","","","","","","feedback_test"
"","","","","","psychophysics","398","866005","0.0-10.0-0.0-0.0-0.1-0.128","797","","j","","","","","","","","","","","","","key","j","6.062618243243353","853.3333333333334","476","j","true","img/C_ambi40.png","生人","same",""
"","","","","","html-keyboard-response","399","866520","0.0-10.0-0.0-0.0-0.1-1.128","null","<span style='color:GreenYellow; font-size: 70px;'>正确! </span>","null","","","","","","","","","","","","","","","","","","","","","","","feedback_test"
"","","","","","psychophysics","400","868319","0.0-10.0-0.0-0.0-0.1-0.129","795","","f","","","","","","","","","","","","","key","f","6.059692567567549","853.3333333333334","476","f","true","img/S_ambi40.png","朋友","same",""
"","","","","","html-keyboard-response","401","868824","0.0-10.0-0.0-0.0-0.1-1.129","null","<span style='color:GreenYellow; font-size: 70px;'>正确! </span>","null","","","","","","","","","","","","","","","","","","","","","","","feedback_test"
"","","","","","psychophysics","402","870411","0.0-10.0-0.0-0.0-0.1-0.130","585","","f","","","","","","","","","","","","","key","f","6.050289575289665","853.3333333333334","476","f","true","img/C_ambi40.png","自我","same",""
"","","","","","html-keyboard-response","403","870920","0.0-10.0-0.0-0.0-0.1-1.130","null","<span style='color:GreenYellow; font-size: 70px;'>正确! </span>","null","","","","","","","","","","","","","","","","","","","","","","","feedback_test"
"","","","","","psychophysics","404","872710","0.0-10.0-0.0-0.0-0.1-0.131","787","","j","","","","","","","","","","","","","key","j","6.060136054421547","853.3333333333334","476","j","true","img/S_ambi40.png","生人","same",""
"","","","","","html-keyboard-response","405","873219","0.0-10.0-0.0-0.0-0.1-1.131","null","<span style='color:GreenYellow; font-size: 70px;'>正确! </span>","null","","","","","","","","","","","","","","","","","","","","","","","feedback_test"
"","","","","","psychophysics","406","874770","0.0-10.0-0.0-0.0-0.1-0.132","549","","f","","","","","","","","","","","","","key","f","6.04866403162069","853.3333333333334","476","f","true","img/H_ambi40.png","生人","same",""
"","","","","","html-keyboard-response","407","875280","0.0-10.0-0.0-0.0-0.1-1.132","null","<span style='color:GreenYellow; font-size: 70px;'>正确! </span>","null","","","","","","","","","","","","","","","","","","","","","","","feedback_test"
"","","","","","psychophysics","408","876794","0.0-10.0-0.0-0.0-0.1-0.133","513","","j","","","","","","","","","","","","","key","j","6.061293172690714","853.3333333333334","476","j","true","img/T_ambi40.png","をる","same",""
"","","","","","html-keyboard-response","409","877302","0.0-10.0-0.0-0.0-0.1-1.133","null","<span style='color:GreenYellow; font-size: 70px;'>正确! </span>","null","","","","","","","","","","","","","","","","","","","","","","","feedback_test"
"","","","","","psychophysics","410","878982","0.0-10.0-0.0-0.0-0.1-0.134","677","","f","","","","","","","","","","","","","key","f","6.060478260869707","853.3333333333334","476","j","false","img/C_ambi40.png","朋友","same",""
"","","","","","html-keyboard-response","411","879498","0.0-10.0-0.0-0.0-0.1-1.134","null","<span style='color:red; font-size: 70px;'>错误! </span>","null","","","","","","","","","","","","","","","","","","","","","","","feedback_test"
"","","","","","psychophysics","412","880970","0.0-10.0-0.0-0.0-0.1-0.135","471","","f","","","","","","","","","","","","","key","f","6.05976033057827","853.3333333333334","476","f","true","img/C_ambi40.png","自我","same",""
"","","","","","html-keyboard-response","413","881483","0.0-10.0-0.0-0.0-0.1-1.135","null","<span style='color:GreenYellow; font-size: 70px;'>正确! </span>","null","","","","","","","","","","","","","","","","","","","","","","","feedback_test"
"","","","","","psychophysics","414","883050","0.0-10.0-0.0-0.0-0.1-0.136","562","","j","","","","","","","","","","","","","key","j","6.108367588932869","853.3333333333334","476","j","true","img/T_ambi40.png","をる","same",""
"","","","","","html-keyboard-response","415","883562","0.0-10.0-0.0-0.0-0.1-1.136","null","<span style='color:GreenYellow; font-size: 70px;'>正确! </span>","null","","","","","","","","","","","","","","","","","","","","","","","feedback_test"
"","","","","","psychophysics","416","885127","0.0-10.0-0.0-0.0-0.1-0.137","561","","f","","","","","","","","","","","","","key","f","6.059758754863842","853.3333333333334","476","f","true","img/H_ambi40.png","生人","same",""
"","","","","","html-keyboard-response","417","885642","0.0-10.0-0.0-0.0-0.1-1.137","null","<span style='color:GreenYellow; font-size: 70px;'>正确! </span>","null","","","","","","","","","","","","","","","","","","","","","","","feedback_test"
"","","","","","psychophysics","418","887230","0.0-10.0-0.0-0.0-0.1-0.138","586","","j","","","","","","","","","","","","","key","j","6.060601532567199","853.3333333333334","476","j","true","img/H_ambi40.png","朋友","same",""
"","","","","","html-keyboard-response","419","887742","0.0-10.0-0.0-0.0-0.1-1.138","null","<span style='color:GreenYellow; font-size: 70px;'>正确! </span>","null","","","","","","","","","","","","","","","","","","","","","","","feedback_test"
"","","","","","psychophysics","420","889289","0.0-10.0-0.0-0.0-0.1-0.139","546","","f","","","","","","","","","","","","","key","f","6.060850393700809","853.3333333333334","476","f","true","img/H_ambi40.png","生人","same",""
"","","","","","html-keyboard-response","421","889803","0.0-10.0-0.0-0.0-0.1-1.139","null","<span style='color:GreenYellow; font-size: 70px;'>正确! </span>","null","","","","","","","","","","","","","","","","","","","","","","","feedback_test"
"","","","","","psychophysics","422","891382","0.0-10.0-0.0-0.0-0.1-0.140","579","","f","","","","","","","","","","","","","key","f","6.060633204632859","853.3333333333334","476","f","true","img/C_ambi40.png","自我","same",""
"","","","","","html-keyboard-response","423","891897","0.0-10.0-0.0-0.0-0.1-1.140","null","<span style='color:GreenYellow; font-size: 70px;'>正确! </span>","null","","","","","","","","","","","","","","","","","","","","","","","feedback_test"
"","","","","","psychophysics","424","893502","0.0-10.0-0.0-0.0-0.1-0.141","604","","j","","","","","","","","","","","","","key","j","6.060106463878178","853.3333333333334","476","j","true","img/H_ambi40.png","自我","same",""
"","","","","","html-keyboard-response","425","894009","0.0-10.0-0.0-0.0-0.1-1.141","null","<span style='color:GreenYellow; font-size: 70px;'>正确! </span>","null","","","","","","","","","","","","","","","","","","","","","","","feedback_test"
"","","","","","psychophysics","426","895849","0.0-10.0-0.0-0.0-0.1-0.142","836","","j","","","","","","","","","","","","","key","j","6.06081456953655","853.3333333333334","476","j","true","img/S_ambi40.png","自我","same",""
"","","","","","html-keyboard-response","427","896361","0.0-10.0-0.0-0.0-0.1-1.142","null","<span style='color:GreenYellow; font-size: 70px;'>正确! </span>","null","","","","","","","","","","","","","","","","","","","","","","","feedback_test"
"","","","","","psychophysics","428","897898","0.0-10.0-0.0-0.0-0.1-0.143","533","","j","","","","","","","","","","","","","key","j","6.0608809523812","853.3333333333334","476","j","true","img/T_ambi40.png","をる","same",""
"","","","","","html-keyboard-response","429","898401","0.0-10.0-0.0-0.0-0.1-1.143","null","<span style='color:GreenYellow; font-size: 70px;'>正确! </span>","null","","","","","","","","","","","","","","","","","","","","","","","feedback_test"
"","","","","","psychophysics","430","899865","0.0-10.0-0.0-0.0-0.1-0.144","462","","j","","","","","","","","","","","","","key","j","6.061058091286172","853.3333333333334","476","j","true","img/T_ambi40.png","をる","same",""
