"success","timeout","failed_images","failed_audio","failed_video","trial_type","trial_index","time_elapsed","internal_node_id","rt","stimulus","response","value","item_width_mm","item_height_mm","item_width_px","px2mm","view_dist_mm","item_width_deg","px2deg","scale_factor","win_width_deg","win_height_deg","view_history","response_type","key_press","avg_frame_time","center_x","center_y","correct_response","correct","Image","word","condition","screen_id"
"true","false","[]","[]","[]","preload","0","3766","0.0-0.0","","","","","","","","","","","","","","","","","","","","","","","","","",""
"","","","","","html-keyboard-response","1","66483","0.0-1.0","62716","
     <p>您好，欢迎参加本次实验。</p>
     <p>为充分保障您的权利，请确保您已经知晓并同意《参与实验同意书》以及《数据公开知情同意书》。</p>
     <p>如果您未见过上述内容，请咨询实验员。</p>
     <p>如果您选择继续实验，则表示您已经清楚两份知情同意书的内容并同意。</p>
     <p> <div style = ""color: green""><按任意键至下页></div> </p>
     "," ","","","","","","","","","","","","","","","","","","","","","","",""
"","","","","","html-keyboard-response","2","77392","0.0-2.0","10908","
     <p>本实验首先需要您填写一些基本个人信息。</p>
     <p> <div style = ""color: green""><按任意键至下页></div></p>
     "," ","","","","","","","","","","","","","","","","","","","","","","",""
"","","","","","call-function","3","77394","0.0-3.0-0.0","","","","","","","","","","","","","","","","","","","","","","","","","",""
"","","","","","survey-html-form","4","81950","0.0-3.0-1.0","4552","","{""Q0"":""5""}","","","","","","","","","","","","","","","","","","","","","","",""
"","","","","","html-button-response","5","83329","0.0-3.0-2.0","1378","<p style = 'color : white'>您的性别</p>","1","","","","","","","","","","","","","","","","","","","","","","",""
"","","","","","survey-html-form","6","88773","0.0-3.0-3.0","5443","","{""Q0"":""2003""}","","","","","","","","","","","","","","","","","","","","","","",""
"","","","","","survey-html-form","7","94771","0.0-3.0-4.0","5997","","{""Q0"":""5""}","","","","","","","","","","","","","","","","","","","","","","",""
"","","","","","virtual-chinrest","8","279414","0.0-4.0","184640","","","","85.6","53.98","265.51349765883697","3.1011976526552156","922.93","5.310269953176739","50","0.9415717174620986","23.6","12.48","","","","","","","","","","","",""
"true","","","","","fullscreen","9","284307","0.0-5.0","","","","","","","","","","","","","","","","","","","","","","","","","",""
"","","","","","instructions","10","356877","0.0-6.0","72568","","","","","","","","","","","","","","[{""page_index"":0,""viewing_time"":6792},{""page_index"":1,""viewing_time"":52715},{""page_index"":2,""viewing_time"":4965},{""page_index"":3,""viewing_time"":8095}]","","","","","","","","","","",""
"","","","","","psychophysics","11","359391","0.0-7.0-0.0","null","","null","","","","","","","","","","","","","key","null","16.69179333333314","622.4999752640734","384.9999847014751","f","false","img/S_ambi40.png","生人","prac",""
"","","","","","html-keyboard-response","12","359903","0.0-7.0-1.0","null","<span class='add_' style='color:yellow; font-size: 70px;'> 太慢! </span>","null","","","","","","","","","","","","","","","","","","","","","","","feedback_test"
"","","","","","psychophysics","13","362406","0.0-7.0-0.1","null","","null","","","","","","","","","","","","","key","null","16.698362416107653","622.4999752640734","384.9999847014751","j","false","img/S_ambi40.png","朋友","prac",""
"","","","","","html-keyboard-response","14","362922","0.0-7.0-1.1","null","<span class='add_' style='color:yellow; font-size: 70px;'> 太慢! </span>","null","","","","","","","","","","","","","","","","","","","","","","","feedback_test"
"","","","","","psychophysics","15","365424","0.0-7.0-0.2","null","","null","","","","","","","","","","","","","key","null","16.689648648648447","622.4999752640734","384.9999847014751","j","false","img/C_ambi40.png","生人","prac",""
"","","","","","html-keyboard-response","16","365934","0.0-7.0-1.2","null","<span class='add_' style='color:yellow; font-size: 70px;'> 太慢! </span>","null","","","","","","","","","","","","","","","","","","","","","","","feedback_test"
"","","","","","psychophysics","17","368111","0.0-7.0-0.3","1174","","f","","","","","","","","","","","","","key","f","16.691457364341343","622.4999752640734","384.9999847014751","j","false","img/H_ambi40.png","自我","prac",""
"","","","","","html-keyboard-response","18","368628","0.0-7.0-1.3","null","<span style='color:red; font-size: 70px;'>错误! </span>","null","","","","","","","","","","","","","","","","","","","","","","","feedback_test"
"","","","","","psychophysics","19","371132","0.0-7.0-0.4","null","","null","","","","","","","","","","","","","key","null","16.607283783783565","622.4999752640734","384.9999847014751","j","false","img/T_ambi40.png","をる","prac",""
"","","","","","html-keyboard-response","20","371641","0.0-7.0-1.4","null","<span class='add_' style='color:yellow; font-size: 70px;'> 太慢! </span>","null","","","","","","","","","","","","","","","","","","","","","","","feedback_test"
"","","","","","psychophysics","21","374150","0.0-7.0-0.5","null","","null","","","","","","","","","","","","","key","null","16.690986577181175","622.4999752640734","384.9999847014751","f","false","img/S_ambi40.png","自我","prac",""
"","","","","","html-keyboard-response","22","374663","0.0-7.0-1.5","null","<span class='add_' style='color:yellow; font-size: 70px;'> 太慢! </span>","null","","","","","","","","","","","","","","","","","","","","","","","feedback_test"
"","","","","","psychophysics","23","376671","0.0-7.0-0.6","1006","","f","","","","","","","","","","","","","key","f","16.692504201680638","622.4999752640734","384.9999847014751","j","false","img/H_ambi40.png","自我","prac",""
"","","","","","html-keyboard-response","24","377183","0.0-7.0-1.6","null","<span style='color:red; font-size: 70px;'>错误! </span>","null","","","","","","","","","","","","","","","","","","","","","","","feedback_test"
"","","","","","psychophysics","25","379051","0.0-7.0-0.7","865","","j","","","","","","","","","","","","","key","j","16.691333333333443","622.4999752640734","384.9999847014751","j","true","img/T_ambi40.png","をる","prac",""
"","","","","","html-keyboard-response","26","379566","0.0-7.0-1.7","null","<span style='color:GreenYellow; font-size: 70px;'>正确! </span>","null","","","","","","","","","","","","","","","","","","","","","","","feedback_test"
"","","","","","psychophysics","27","382020","0.0-7.0-0.8","1452","","j","","","","","","","","","","","","","key","j","16.69104109589036","622.4999752640734","384.9999847014751","f","false","img/H_ambi40.png","朋友","prac",""
"","","","","","html-keyboard-response","28","382534","0.0-7.0-1.8","null","<span style='color:red; font-size: 70px;'>错误! </span>","null","","","","","","","","","","","","","","","","","","","","","","","feedback_test"
"","","","","","psychophysics","29","385037","0.0-7.0-0.9","null","","null","","","","","","","","","","","","","key","null","16.69104054054077","622.4999752640734","384.9999847014751","f","false","img/H_ambi40.png","生人","prac",""
"","","","","","html-keyboard-response","30","385546","0.0-7.0-1.9","null","<span class='add_' style='color:yellow; font-size: 70px;'> 太慢! </span>","null","","","","","","","","","","","","","","","","","","","","","","","feedback_test"
"","","","","","psychophysics","31","388040","0.0-7.0-0.10","1491","","f","","","","","","","","","","","","","key","f","16.690459459459227","622.4999752640734","384.9999847014751","j","false","img/S_ambi40.png","朋友","prac",""
"","","","","","html-keyboard-response","32","388543","0.0-7.0-1.10","null","<span style='color:red; font-size: 70px;'>错误! </span>","null","","","","","","","","","","","","","","","","","","","","","","","feedback_test"
"","","","","","psychophysics","33","390391","0.0-7.0-0.11","847","","j","","","","","","","","","","","","","key","j","16.690844036697477","622.4999752640734","384.9999847014751","j","true","img/T_ambi40.png","をる","prac",""
"","","","","","html-keyboard-response","34","390893","0.0-7.0-1.11","null","<span style='color:GreenYellow; font-size: 70px;'>正确! </span>","null","","","","","","","","","","","","","","","","","","","","","","","feedback_test"
"","","","","","psychophysics","35","392655","0.0-7.0-0.12","760","","j","","","","","","","","","","","","","key","j","16.69418095238119","622.4999752640734","384.9999847014751","j","true","img/T_ambi40.png","をる","prac",""
"","","","","","html-keyboard-response","36","393159","0.0-7.0-1.12","null","<span style='color:GreenYellow; font-size: 70px;'>正确! </span>","null","","","","","","","","","","","","","","","","","","","","","","","feedback_test"
"","","","","","psychophysics","37","395661","0.0-7.0-0.13","null","","null","","","","","","","","","","","","","key","null","16.691993288590336","622.4999752640734","384.9999847014751","f","false","img/C_ambi40.png","朋友","prac",""
"","","","","","html-keyboard-response","38","396177","0.0-7.0-1.13","null","<span class='add_' style='color:yellow; font-size: 70px;'> 太慢! </span>","null","","","","","","","","","","","","","","","","","","","","","","","feedback_test"
"","","","","","psychophysics","39","398533","0.0-7.0-0.14","1353","","j","","","","","","","","","","","","","key","j","16.690371428571442","622.4999752640734","384.9999847014751","j","true","img/C_ambi40.png","生人","prac",""
"","","","","","html-keyboard-response","40","399039","0.0-7.0-1.14","null","<span style='color:GreenYellow; font-size: 70px;'>正确! </span>","null","","","","","","","","","","","","","","","","","","","","","","","feedback_test"
"","","","","","psychophysics","41","401544","0.0-7.0-0.15","null","","null","","","","","","","","","","","","","key","null","16.69034228187942","622.4999752640734","384.9999847014751","f","false","img/C_ambi40.png","自我","prac",""
"","","","","","html-keyboard-response","42","402053","0.0-7.0-1.15","null","<span class='add_' style='color:yellow; font-size: 70px;'> 太慢! </span>","null","","","","","","","","","","","","","","","","","","","","","","","feedback_test"
"","","","","","psychophysics","43","404397","0.0-7.0-0.16","1341","","f","","","","","","","","","","","","","key","f","16.69195683453259","622.4999752640734","384.9999847014751","f","true","img/H_ambi40.png","朋友","prac",""
"","","","","","html-keyboard-response","44","404911","0.0-7.0-1.16","null","<span style='color:GreenYellow; font-size: 70px;'>正确! </span>","null","","","","","","","","","","","","","","","","","","","","","","","feedback_test"
"","","","","","psychophysics","45","407415","0.0-7.0-0.17","null","","null","","","","","","","","","","","","","key","null","16.69080536912747","622.4999752640734","384.9999847014751","j","false","img/H_ambi40.png","自我","prac",""
"","","","","","html-keyboard-response","46","407921","0.0-7.0-1.17","null","<span class='add_' style='color:yellow; font-size: 70px;'> 太慢! </span>","null","","","","","","","","","","","","","","","","","","","","","","","feedback_test"
"","","","","","psychophysics","47","409702","0.0-7.0-0.18","779","","j","","","","","","","","","","","","","key","j","16.69160000000016","622.4999752640734","384.9999847014751","f","false","img/S_ambi40.png","自我","prac",""
"","","","","","html-keyboard-response","48","410203","0.0-7.0-1.18","null","<span style='color:red; font-size: 70px;'>错误! </span>","null","","","","","","","","","","","","","","","","","","","","","","","feedback_test"
"","","","","","psychophysics","49","411925","0.0-7.0-0.19","716","","j","","","","","","","","","","","","","key","j","16.692264705882682","622.4999752640734","384.9999847014751","j","true","img/T_ambi40.png","をる","prac",""
"","","","","","html-keyboard-response","50","412430","0.0-7.0-1.19","null","<span style='color:GreenYellow; font-size: 70px;'>正确! </span>","null","","","","","","","","","","","","","","","","","","","","","","","feedback_test"
"","","","","","psychophysics","51","414595","0.0-7.0-0.20","1163","","f","","","","","","","","","","","","","key","f","16.691921874999935","622.4999752640734","384.9999847014751","j","false","img/C_ambi40.png","生人","prac",""
"","","","","","html-keyboard-response","52","415097","0.0-7.0-1.20","null","<span style='color:red; font-size: 70px;'>错误! </span>","null","","","","","","","","","","","","","","","","","","","","","","","feedback_test"
"","","","","","psychophysics","53","417310","0.0-7.0-0.21","1210","","j","","","","","","","","","","","","","key","j","16.69155725190871","622.4999752640734","384.9999847014751","j","true","img/H_ambi40.png","自我","prac",""
"","","","","","html-keyboard-response","54","417813","0.0-7.0-1.21","null","<span style='color:GreenYellow; font-size: 70px;'>正确! </span>","null","","","","","","","","","","","","","","","","","","","","","","","feedback_test"
"","","","","","psychophysics","55","419751","0.0-7.0-0.22","936","","j","","","","","","","","","","","","","key","j","16.69132173913025","622.4999752640734","384.9999847014751","f","false","img/H_ambi40.png","生人","prac",""
"","","","","","html-keyboard-response","56","420261","0.0-7.0-1.22","null","<span style='color:red; font-size: 70px;'>错误! </span>","null","","","","","","","","","","","","","","","","","","","","","","","feedback_test"
"","","","","","psychophysics","57","422255","0.0-7.0-0.23","991","","f","","","","","","","","","","","","","key","f","16.690915254237215","622.4999752640734","384.9999847014751","f","true","img/S_ambi40.png","生人","prac",""
"","","","","","html-keyboard-response","58","422766","0.0-7.0-1.23","null","<span style='color:GreenYellow; font-size: 70px;'>正确! </span>","null","","","","","","","","","","","","","","","","","","","","","","","feedback_test"
"","","","","","psychophysics","59","425012","0.0-7.0-0.24","1244","","f","","","","","","","","","","","","","key","f","16.69109022556375","622.4999752640734","384.9999847014751","j","false","img/S_ambi40.png","朋友","prac",""
"","","","","","html-keyboard-response","60","425517","0.0-7.0-1.24","null","<span style='color:red; font-size: 70px;'>错误! </span>","null","","","","","","","","","","","","","","","","","","","","","","","feedback_test"
"","","","","","psychophysics","61","427357","0.0-7.0-0.25","838","","j","","","","","","","","","","","","","key","j","16.69072477064211","622.4999752640734","384.9999847014751","j","true","img/S_ambi40.png","朋友","prac",""
"","","","","","html-keyboard-response","62","427859","0.0-7.0-1.25","null","<span style='color:GreenYellow; font-size: 70px;'>正确! </span>","null","","","","","","","","","","","","","","","","","","","","","","","feedback_test"
"","","","","","psychophysics","63","429921","0.0-7.0-0.26","1059","","f","","","","","","","","","","","","","key","f","16.692747967479548","622.4999752640734","384.9999847014751","f","true","img/C_ambi40.png","自我","prac",""
"","","","","","html-keyboard-response","64","430427","0.0-7.0-1.26","null","<span style='color:GreenYellow; font-size: 70px;'>正确! </span>","null","","","","","","","","","","","","","","","","","","","","","","","feedback_test"
"","","","","","psychophysics","65","432350","0.0-7.0-0.27","921","","j","","","","","","","","","","","","","key","j","16.69177192982476","622.4999752640734","384.9999847014751","j","true","img/T_ambi40.png","をる","prac",""
"","","","","","html-keyboard-response","66","432859","0.0-7.0-1.27","null","<span style='color:GreenYellow; font-size: 70px;'>正确! </span>","null","","","","","","","","","","","","","","","","","","","","","","","feedback_test"
"","","","","","psychophysics","67","435362","0.0-7.0-0.28","null","","null","","","","","","","","","","","","","key","null","16.69094594594601","622.4999752640734","384.9999847014751","f","false","img/C_ambi40.png","朋友","prac",""
"","","","","","html-keyboard-response","68","435875","0.0-7.0-1.28","null","<span class='add_' style='color:yellow; font-size: 70px;'> 太慢! </span>","null","","","","","","","","","","","","","","","","","","","","","","","feedback_test"
"","","","","","psychophysics","69","437671","0.0-7.0-0.29","795","","j","","","","","","","","","","","","","key","j","16.690831775700882","622.4999752640734","384.9999847014751","j","true","img/T_ambi40.png","をる","prac",""
"","","","","","html-keyboard-response","70","438179","0.0-7.0-1.29","null","<span style='color:GreenYellow; font-size: 70px;'>正确! </span>","null","","","","","","","","","","","","","","","","","","","","","","","feedback_test"
"","","","","","psychophysics","71","440314","0.0-7.0-0.30","1131","","j","","","","","","","","","","","","","key","j","16.6918188976376","622.4999752640734","384.9999847014751","j","true","img/C_ambi40.png","生人","prac",""
"","","","","","html-keyboard-response","72","440822","0.0-7.0-1.30","null","<span style='color:GreenYellow; font-size: 70px;'>正确! </span>","null","","","","","","","","","","","","","","","","","","","","","","","feedback_test"
"","","","","","psychophysics","73","442584","0.0-7.0-0.31","760","","j","","","","","","","","","","","","","key","j","16.689038461538775","622.4999752640734","384.9999847014751","j","true","img/T_ambi40.png","をる","prac",""
"","","","","","html-keyboard-response","74","443094","0.0-7.0-1.31","null","<span style='color:GreenYellow; font-size: 70px;'>正确! </span>","null","","","","","","","","","","","","","","","","","","","","","","","feedback_test"
"","","","","","psychophysics","75","445019","0.0-8.0-0.0-0.0","923","","f","","","","","","","","","","","","","key","f","16.69042982456117","622.4999752640734","384.9999847014751","f","true","img/C_ambi40.png","自我","prac",""
"","","","","","html-keyboard-response","76","445533","0.0-8.0-0.0-1.0","null","<span style='color:GreenYellow; font-size: 70px;'>正确! </span>","null","","","","","","","","","","","","","","","","","","","","","","","feedback_test"
"","","","","","psychophysics","77","447185","0.0-8.0-0.0-0.1","649","","j","","","","","","","","","","","","","key","j","16.687683673469202","622.4999752640734","384.9999847014751","j","true","img/T_ambi40.png","をる","prac",""
"","","","","","html-keyboard-response","78","447700","0.0-8.0-0.0-1.1","null","<span style='color:GreenYellow; font-size: 70px;'>正确! </span>","null","","","","","","","","","","","","","","","","","","","","","","","feedback_test"
"","","","","","psychophysics","79","449321","0.0-8.0-0.0-0.2","619","","j","","","","","","","","","","","","","key","j","16.691104166666264","622.4999752640734","384.9999847014751","j","true","img/H_ambi40.png","自我","prac",""
"","","","","","html-keyboard-response","80","449830","0.0-8.0-0.0-1.2","null","<span style='color:GreenYellow; font-size: 70px;'>正确! </span>","null","","","","","","","","","","","","","","","","","","","","","","","feedback_test"
"","","","","","psychophysics","81","451794","0.0-8.0-0.0-0.3","962","","f","","","","","","","","","","","","","key","f","16.582241379310165","622.4999752640734","384.9999847014751","f","true","img/S_ambi40.png","自我","prac",""
"","","","","","html-keyboard-response","82","452304","0.0-8.0-0.0-1.3","null","<span style='color:GreenYellow; font-size: 70px;'>正确! </span>","null","","","","","","","","","","","","","","","","","","","","","","","feedback_test"
"","","","","","psychophysics","83","453987","0.0-8.0-0.0-0.4","682","","j","","","","","","","","","","","","","key","j","16.691393939393684","622.4999752640734","384.9999847014751","j","true","img/H_ambi40.png","自我","prac",""
"","","","","","html-keyboard-response","84","454489","0.0-8.0-0.0-1.4","null","<span style='color:GreenYellow; font-size: 70px;'>正确! </span>","null","","","","","","","","","","","","","","","","","","","","","","","feedback_test"
"","","","","","psychophysics","85","456821","0.0-8.0-0.0-0.5","1330","","f","","","","","","","","","","","","","key","f","16.690159420289632","622.4999752640734","384.9999847014751","f","true","img/C_ambi40.png","朋友","prac",""
"","","","","","html-keyboard-response","86","457328","0.0-8.0-0.0-1.5","null","<span style='color:GreenYellow; font-size: 70px;'>正确! </span>","null","","","","","","","","","","","","","","","","","","","","","","","feedback_test"
"","","","","","psychophysics","87","458969","0.0-8.0-0.0-0.6","639","","j","","","","","","","","","","","","","key","j","16.690536082473812","622.4999752640734","384.9999847014751","j","true","img/T_ambi40.png","をる","prac",""
"","","","","","html-keyboard-response","88","459480","0.0-8.0-0.0-1.6","null","<span style='color:GreenYellow; font-size: 70px;'>正确! </span>","null","","","","","","","","","","","","","","","","","","","","","","","feedback_test"
"","","","","","psychophysics","89","461755","0.0-8.0-0.0-0.7","1274","","j","","","","","","","","","","","","","key","j","16.69186666666668","622.4999752640734","384.9999847014751","f","false","img/H_ambi40.png","生人","prac",""
"","","","","","html-keyboard-response","90","462263","0.0-8.0-0.0-1.7","null","<span style='color:red; font-size: 70px;'>错误! </span>","null","","","","","","","","","","","","","","","","","","","","","","","feedback_test"
"","","","","","psychophysics","91","464767","0.0-8.0-0.0-0.8","null","","null","","","","","","","","","","","","","key","null","16.69142953020125","622.4999752640734","384.9999847014751","j","false","img/T_ambi40.png","をる","prac",""
"","","","","","html-keyboard-response","92","465270","0.0-8.0-0.0-1.8","null","<span class='add_' style='color:yellow; font-size: 70px;'> 太慢! </span>","null","","","","","","","","","","","","","","","","","","","","","","","feedback_test"
"","","","","","psychophysics","93","467776","0.0-8.0-0.0-0.9","null","","null","","","","","","","","","","","","","key","null","16.692371621621362","622.4999752640734","384.9999847014751","j","false","img/C_ambi40.png","生人","prac",""
"","","","","","html-keyboard-response","94","468284","0.0-8.0-0.0-1.9","null","<span class='add_' style='color:yellow; font-size: 70px;'> 太慢! </span>","null","","","","","","","","","","","","","","","","","","","","","","","feedback_test"
"","","","","","psychophysics","95","470194","0.0-8.0-0.0-0.10","908","","f","","","","","","","","","","","","","key","f","16.685115044247834","622.4999752640734","384.9999847014751","f","true","img/H_ambi40.png","朋友","prac",""
"","","","","","html-keyboard-response","96","470697","0.0-8.0-0.0-1.10","null","<span style='color:GreenYellow; font-size: 70px;'>正确! </span>","null","","","","","","","","","","","","","","","","","","","","","","","feedback_test"
"","","","","","psychophysics","97","472874","0.0-8.0-0.0-0.11","1175","","f","","","","","","","","","","","","","key","f","16.690899224806117","622.4999752640734","384.9999847014751","f","true","img/S_ambi40.png","生人","prac",""
"","","","","","html-keyboard-response","98","473379","0.0-8.0-0.0-1.11","null","<span style='color:GreenYellow; font-size: 70px;'>正确! </span>","null","","","","","","","","","","","","","","","","","","","","","","","feedback_test"
"","","","","","psychophysics","99","475065","0.0-8.0-0.0-0.12","679","","j","","","","","","","","","","","","","key","j","16.69039999999979","622.4999752640734","384.9999847014751","j","true","img/T_ambi40.png","をる","prac",""
"","","","","","html-keyboard-response","100","475578","0.0-8.0-0.0-1.12","null","<span style='color:GreenYellow; font-size: 70px;'>正确! </span>","null","","","","","","","","","","","","","","","","","","","","","","","feedback_test"
"","","","","","psychophysics","101","477352","0.0-8.0-0.0-0.13","771","","f","","","","","","","","","","","","","key","f","16.692380952381065","622.4999752640734","384.9999847014751","j","false","img/C_ambi40.png","生人","prac",""
"","","","","","html-keyboard-response","102","477861","0.0-8.0-0.0-1.13","null","<span style='color:red; font-size: 70px;'>错误! </span>","null","","","","","","","","","","","","","","","","","","","","","","","feedback_test"
"","","","","","psychophysics","103","479847","0.0-8.0-0.0-0.14","983","","f","","","","","","","","","","","","","key","f","16.690110169491195","622.4999752640734","384.9999847014751","j","false","img/S_ambi40.png","朋友","prac",""
"","","","","","html-keyboard-response","104","480360","0.0-8.0-0.0-1.14","null","<span style='color:red; font-size: 70px;'>错误! </span>","null","","","","","","","","","","","","","","","","","","","","","","","feedback_test"
"","","","","","psychophysics","105","482304","0.0-8.0-0.0-0.15","942","","j","","","","","","","","","","","","","key","j","16.69040869565215","622.4999752640734","384.9999847014751","j","true","img/S_ambi40.png","朋友","prac",""
"","","","","","html-keyboard-response","106","482818","0.0-8.0-0.0-1.15","null","<span style='color:GreenYellow; font-size: 70px;'>正确! </span>","null","","","","","","","","","","","","","","","","","","","","","","","feedback_test"
"","","","","","psychophysics","107","484403","0.0-8.0-0.0-0.16","580","","j","","","","","","","","","","","","","key","j","16.690648936169925","622.4999752640734","384.9999847014751","f","false","img/H_ambi40.png","生人","prac",""
"","","","","","html-keyboard-response","108","484919","0.0-8.0-0.0-1.16","null","<span style='color:red; font-size: 70px;'>错误! </span>","null","","","","","","","","","","","","","","","","","","","","","","","feedback_test"
"","","","","","psychophysics","109","486895","0.0-8.0-0.0-0.17","974","","j","","","","","","","","","","","","","key","j","16.690068376068478","622.4999752640734","384.9999847014751","j","true","img/H_ambi40.png","自我","prac",""
"","","","","","html-keyboard-response","110","487409","0.0-8.0-0.0-1.17","null","<span style='color:GreenYellow; font-size: 70px;'>正确! </span>","null","","","","","","","","","","","","","","","","","","","","","","","feedback_test"
"","","","","","psychophysics","111","489364","0.0-8.0-0.0-0.18","951","","j","","","","","","","","","","","","","key","j","16.68570689655186","622.4999752640734","384.9999847014751","j","true","img/S_ambi40.png","朋友","prac",""
"","","","","","html-keyboard-response","112","489868","0.0-8.0-0.0-1.18","null","<span style='color:GreenYellow; font-size: 70px;'>正确! </span>","null","","","","","","","","","","","","","","","","","","","","","","","feedback_test"
"","","","","","psychophysics","113","491605","0.0-8.0-0.0-0.19","734","","j","","","","","","","","","","","","","key","j","16.689213592233024","622.4999752640734","384.9999847014751","j","true","img/S_ambi40.png","朋友","prac",""
"","","","","","html-keyboard-response","114","492120","0.0-8.0-0.0-1.19","null","<span style='color:GreenYellow; font-size: 70px;'>正确! </span>","null","","","","","","","","","","","","","","","","","","","","","","","feedback_test"
"","","","","","psychophysics","115","493773","0.0-8.0-0.0-0.20","650","","j","","","","","","","","","","","","","key","j","16.691959183673227","622.4999752640734","384.9999847014751","j","true","img/T_ambi40.png","をる","prac",""
"","","","","","html-keyboard-response","116","494290","0.0-8.0-0.0-1.20","null","<span style='color:GreenYellow; font-size: 70px;'>正确! </span>","null","","","","","","","","","","","","","","","","","","","","","","","feedback_test"
"","","","","","psychophysics","117","496175","0.0-8.0-0.0-0.21","883","","f","","","","","","","","","","","","","key","f","16.692187499999687","622.4999752640734","384.9999847014751","j","false","img/C_ambi40.png","生人","prac",""
"","","","","","html-keyboard-response","118","496686","0.0-8.0-0.0-1.21","null","<span style='color:red; font-size: 70px;'>错误! </span>","null","","","","","","","","","","","","","","","","","","","","","","","feedback_test"
"","","","","","psychophysics","119","498616","0.0-8.0-0.0-0.22","928","","j","","","","","","","","","","","","","key","j","16.691342105262855","622.4999752640734","384.9999847014751","j","true","img/C_ambi40.png","生人","prac",""
"","","","","","html-keyboard-response","120","499122","0.0-8.0-0.0-1.22","null","<span style='color:GreenYellow; font-size: 70px;'>正确! </span>","null","","","","","","","","","","","","","","","","","","","","","","","feedback_test"
"","","","","","psychophysics","121","501221","0.0-8.0-0.0-0.23","1097","","j","","","","","","","","","","","","","key","j","16.69123387096765","622.4999752640734","384.9999847014751","j","true","img/T_ambi40.png","をる","prac",""
"","","","","","html-keyboard-response","122","501734","0.0-8.0-0.0-1.23","null","<span style='color:GreenYellow; font-size: 70px;'>正确! </span>","null","","","","","","","","","","","","","","","","","","","","","","","feedback_test"
"","","","","","psychophysics","123","503569","0.0-8.0-0.0-0.24","834","","j","","","","","","","","","","","","","key","j","16.691238532109836","622.4999752640734","384.9999847014751","f","false","img/S_ambi40.png","自我","prac",""
"","","","","","html-keyboard-response","124","504077","0.0-8.0-0.0-1.24","null","<span style='color:red; font-size: 70px;'>错误! </span>","null","","","","","","","","","","","","","","","","","","","","","","","feedback_test"
"","","","","","psychophysics","125","505672","0.0-8.0-0.0-0.25","592","","j","","","","","","","","","","","","","key","j","16.543265957447225","622.4999752640734","384.9999847014751","j","true","img/H_ambi40.png","自我","prac",""
"","","","","","html-keyboard-response","126","506182","0.0-8.0-0.0-1.25","null","<span style='color:GreenYellow; font-size: 70px;'>正确! </span>","null","","","","","","","","","","","","","","","","","","","","","","","feedback_test"
"","","","","","psychophysics","127","507837","0.0-8.0-0.0-0.26","652","","j","","","","","","","","","","","","","key","j","16.690928571428675","622.4999752640734","384.9999847014751","j","true","img/T_ambi40.png","をる","prac",""
"","","","","","html-keyboard-response","128","508344","0.0-8.0-0.0-1.26","null","<span style='color:GreenYellow; font-size: 70px;'>正确! </span>","null","","","","","","","","","","","","","","","","","","","","","","","feedback_test"
"","","","","","psychophysics","129","509852","0.0-8.0-0.0-0.27","505","","j","","","","","","","","","","","","","key","j","16.69144943820213","622.4999752640734","384.9999847014751","f","false","img/H_ambi40.png","朋友","prac",""
"","","","","","html-keyboard-response","130","510359","0.0-8.0-0.0-1.27","null","<span style='color:red; font-size: 70px;'>错误! </span>","null","","","","","","","","","","","","","","","","","","","","","","","feedback_test"
"","","","","","psychophysics","131","512480","0.0-8.0-0.0-0.28","1118","","f","","","","","","","","","","","","","key","f","16.691277777777508","622.4999752640734","384.9999847014751","f","true","img/C_ambi40.png","自我","prac",""
"","","","","","html-keyboard-response","132","512984","0.0-8.0-0.0-1.28","null","<span style='color:GreenYellow; font-size: 70px;'>正确! </span>","null","","","","","","","","","","","","","","","","","","","","","","","feedback_test"
"","","","","","psychophysics","133","515103","0.0-8.0-0.0-0.29","1115","","j","","","","","","","","","","","","","key","j","16.691174603174513","622.4999752640734","384.9999847014751","f","false","img/S_ambi40.png","生人","prac",""
"","","","","","html-keyboard-response","134","515614","0.0-8.0-0.0-1.29","null","<span style='color:red; font-size: 70px;'>错误! </span>","null","","","","","","","","","","","","","","","","","","","","","","","feedback_test"
"","","","","","psychophysics","135","517788","0.0-8.0-0.0-0.30","1173","","f","","","","","","","","","","","","","key","f","16.691658914728585","622.4999752640734","384.9999847014751","f","true","img/C_ambi40.png","朋友","prac",""
"","","","","","html-keyboard-response","136","518292","0.0-8.0-0.0-1.30","null","<span style='color:GreenYellow; font-size: 70px;'>正确! </span>","null","","","","","","","","","","","","","","","","","","","","","","","feedback_test"
"","","","","","psychophysics","137","520687","0.0-8.0-0.0-0.31","1394","","j","","","","","","","","","","","","","key","j","16.69279577464774","622.4999752640734","384.9999847014751","j","true","img/T_ambi40.png","をる","prac",""
"","","","","","html-keyboard-response","138","521195","0.0-8.0-0.0-1.31","null","<span style='color:GreenYellow; font-size: 70px;'>正确! </span>","null","","","","","","","","","","","","","","","","","","","","","","","feedback_test"
"","","","","","html-keyboard-response","139","527482","0.0-8.0-1.0-0.0","6286","<style>.context{color:white; font-size: 35px; line-height:40px}</style>                          <div><p class='context'>您正确回答了69% 的试次。</p ><p class='context'>您的平均反应时为899毫秒。</p >"," ","","","","","","","","","","","","","","","","","","","","","","",""
"","","","","","instructions","140","539826","0.0-8.0-1.0-1.0","12341","","","","","","","","","","","","","","[{""page_index"":0,""viewing_time"":2462},{""page_index"":1,""viewing_time"":7612},{""page_index"":2,""viewing_time"":2266}]","","","","","","","","","","",""
"","","","","","psychophysics","141","542025","0.0-8.1-0.1-0.32","1193","","j","","","","","","","","","","","","","key","j","16.6903282442754","622.4999752640734","384.9999847014751","f","false","img/H_ambi40.png","生人","prac",""
"","","","","","html-keyboard-response","142","542532","0.0-8.1-0.1-1.32","null","<span style='color:red; font-size: 70px;'>错误! </span>","null","","","","","","","","","","","","","","","","","","","","","","","feedback_test"
"","","","","","psychophysics","143","544356","0.0-8.1-0.1-0.33","818","","j","","","","","","","","","","","","","key","j","16.691712962962576","622.4999752640734","384.9999847014751","j","true","img/H_ambi40.png","自我","prac",""
"","","","","","html-keyboard-response","144","544865","0.0-8.1-0.1-1.33","null","<span style='color:GreenYellow; font-size: 70px;'>正确! </span>","null","","","","","","","","","","","","","","","","","","","","","","","feedback_test"
"","","","","","psychophysics","145","546649","0.0-8.1-0.1-0.34","782","","f","","","","","","","","","","","","","key","f","16.691386792452935","622.4999752640734","384.9999847014751","f","true","img/H_ambi40.png","朋友","prac",""
"","","","","","html-keyboard-response","146","547153","0.0-8.1-0.1-1.34","null","<span style='color:GreenYellow; font-size: 70px;'>正确! </span>","null","","","","","","","","","","","","","","","","","","","","","","","feedback_test"
"","","","","","psychophysics","147","549329","0.0-8.1-0.1-0.35","1175","","j","","","","","","","","","","","","","key","j","16.692395348837348","622.4999752640734","384.9999847014751","j","true","img/S_ambi40.png","朋友","prac",""
"","","","","","html-keyboard-response","148","549844","0.0-8.1-0.1-1.35","null","<span style='color:GreenYellow; font-size: 70px;'>正确! </span>","null","","","","","","","","","","","","","","","","","","","","","","","feedback_test"
"","","","","","psychophysics","149","551711","0.0-8.1-0.1-0.36","863","","j","","","","","","","","","","","","","key","j","16.691612612612353","622.4999752640734","384.9999847014751","j","true","img/T_ambi40.png","をる","prac",""
"","","","","","html-keyboard-response","150","552213","0.0-8.1-0.1-1.36","null","<span style='color:GreenYellow; font-size: 70px;'>正确! </span>","null","","","","","","","","","","","","","","","","","","","","","","","feedback_test"
"","","","","","psychophysics","151","554388","0.0-8.1-0.1-0.37","1170","","f","","","","","","","","","","","","","key","f","16.691938461538832","622.4999752640734","384.9999847014751","f","true","img/S_ambi40.png","生人","prac",""
"","","","","","html-keyboard-response","152","554905","0.0-8.1-0.1-1.37","null","<span style='color:GreenYellow; font-size: 70px;'>正确! </span>","null","","","","","","","","","","","","","","","","","","","","","","","feedback_test"
"","","","","","psychophysics","153","556601","0.0-8.1-0.1-0.38","695","","j","","","","","","","","","","","","","key","j","16.684490000000224","622.4999752640734","384.9999847014751","j","true","img/T_ambi40.png","をる","prac",""
"","","","","","html-keyboard-response","154","557109","0.0-8.1-0.1-1.38","null","<span style='color:GreenYellow; font-size: 70px;'>正确! </span>","null","","","","","","","","","","","","","","","","","","","","","","","feedback_test"
"","","","","","psychophysics","155","558867","0.0-8.1-0.1-0.39","757","","f","","","","","","","","","","","","","key","f","16.691480769230672","622.4999752640734","384.9999847014751","j","false","img/C_ambi40.png","生人","prac",""
"","","","","","html-keyboard-response","156","559380","0.0-8.1-0.1-1.39","null","<span style='color:red; font-size: 70px;'>错误! </span>","null","","","","","","","","","","","","","","","","","","","","","","","feedback_test"
"","","","","","psychophysics","157","561043","0.0-8.1-0.1-0.40","660","","j","","","","","","","","","","","","","key","j","16.691479591836877","622.4999752640734","384.9999847014751","j","true","img/T_ambi40.png","をる","prac",""
"","","","","","html-keyboard-response","158","561560","0.0-8.1-0.1-1.40","null","<span style='color:GreenYellow; font-size: 70px;'>正确! </span>","null","","","","","","","","","","","","","","","","","","","","","","","feedback_test"
"","","","","","psychophysics","159","563451","0.0-8.1-0.1-0.41","885","","j","","","","","","","","","","","","","key","j","16.689752212388697","622.4999752640734","384.9999847014751","j","true","img/T_ambi40.png","をる","prac",""
"","","","","","html-keyboard-response","160","563962","0.0-8.1-0.1-1.41","null","<span style='color:GreenYellow; font-size: 70px;'>正确! </span>","null","","","","","","","","","","","","","","","","","","","","","","","feedback_test"
"","","","","","psychophysics","161","566025","0.0-8.1-0.1-0.42","1061","","j","","","","","","","","","","","","","key","j","16.69047154471509","622.4999752640734","384.9999847014751","j","true","img/S_ambi40.png","朋友","prac",""
"","","","","","html-keyboard-response","162","566535","0.0-8.1-0.1-1.42","null","<span style='color:GreenYellow; font-size: 70px;'>正确! </span>","null","","","","","","","","","","","","","","","","","","","","","","","feedback_test"
"","","","","","psychophysics","163","568451","0.0-8.1-0.1-0.43","913","","f","","","","","","","","","","","","","key","f","16.693745614035596","622.4999752640734","384.9999847014751","f","true","img/C_ambi40.png","自我","prac",""
"","","","","","html-keyboard-response","164","568967","0.0-8.1-0.1-1.43","null","<span style='color:GreenYellow; font-size: 70px;'>正确! </span>","null","","","","","","","","","","","","","","","","","","","","","","","feedback_test"
"","","","","","psychophysics","165","570674","0.0-8.1-0.1-0.44","705","","j","","","","","","","","","","","","","key","j","16.690386138613206","622.4999752640734","384.9999847014751","f","false","img/S_ambi40.png","自我","prac",""
"","","","","","html-keyboard-response","166","571179","0.0-8.1-0.1-1.44","null","<span style='color:red; font-size: 70px;'>错误! </span>","null","","","","","","","","","","","","","","","","","","","","","","","feedback_test"
"","","","","","psychophysics","167","573042","0.0-8.1-0.1-0.45","860","","f","","","","","","","","","","","","","key","f","16.690763636364135","622.4999752640734","384.9999847014751","f","true","img/C_ambi40.png","朋友","prac",""
"","","","","","html-keyboard-response","168","573547","0.0-8.1-0.1-1.45","null","<span style='color:GreenYellow; font-size: 70px;'>正确! </span>","null","","","","","","","","","","","","","","","","","","","","","","","feedback_test"
"","","","","","psychophysics","169","575153","0.0-8.1-0.1-0.46","604","","j","","","","","","","","","","","","","key","j","16.69334736842123","622.4999752640734","384.9999847014751","j","true","img/H_ambi40.png","自我","prac",""
"","","","","","html-keyboard-response","170","575660","0.0-8.1-0.1-1.46","null","<span style='color:GreenYellow; font-size: 70px;'>正确! </span>","null","","","","","","","","","","","","","","","","","","","","","","","feedback_test"
"","","","","","psychophysics","171","577402","0.0-8.1-0.1-0.47","740","","f","","","","","","","","","","","","","key","f","16.691310679612375","622.4999752640734","384.9999847014751","j","false","img/C_ambi40.png","生人","prac",""
"","","","","","html-keyboard-response","172","577906","0.0-8.1-0.1-1.47","null","<span style='color:red; font-size: 70px;'>错误! </span>","null","","","","","","","","","","","","","","","","","","","","","","","feedback_test"
"","","","","","psychophysics","173","579652","0.0-8.1-0.1-0.48","742","","j","","","","","","","","","","","","","key","j","16.691864077669784","622.4999752640734","384.9999847014751","j","true","img/C_ambi40.png","生人","prac",""
"","","","","","html-keyboard-response","174","580160","0.0-8.1-0.1-1.48","null","<span style='color:GreenYellow; font-size: 70px;'>正确! </span>","null","","","","","","","","","","","","","","","","","","","","","","","feedback_test"
"","","","","","psychophysics","175","581882","0.0-8.1-0.1-0.49","719","","j","","","","","","","","","","","","","key","j","16.69085294117708","622.4999752640734","384.9999847014751","j","true","img/T_ambi40.png","をる","prac",""
"","","","","","html-keyboard-response","176","582397","0.0-8.1-0.1-1.49","null","<span style='color:GreenYellow; font-size: 70px;'>正确! </span>","null","","","","","","","","","","","","","","","","","","","","","","","feedback_test"
"","","","","","psychophysics","177","584485","0.0-8.1-0.1-0.50","1085","","f","","","","","","","","","","","","","key","f","16.685580645161192","622.4999752640734","384.9999847014751","j","false","img/S_ambi40.png","朋友","prac",""
"","","","","","html-keyboard-response","178","584993","0.0-8.1-0.1-1.50","null","<span style='color:red; font-size: 70px;'>错误! </span>","null","","","","","","","","","","","","","","","","","","","","","","","feedback_test"
"","","","","","psychophysics","179","586702","0.0-8.1-0.1-0.51","707","","j","","","","","","","","","","","","","key","j","16.691441176470608","622.4999752640734","384.9999847014751","j","true","img/S_ambi40.png","朋友","prac",""
"","","","","","html-keyboard-response","180","587217","0.0-8.1-0.1-1.51","null","<span style='color:GreenYellow; font-size: 70px;'>正确! </span>","null","","","","","","","","","","","","","","","","","","","","","","","feedback_test"
"","","","","","psychophysics","181","589031","0.0-8.1-0.1-0.52","813","","f","","","","","","","","","","","","","key","f","16.69068224299003","622.4999752640734","384.9999847014751","f","true","img/C_ambi40.png","朋友","prac",""
"","","","","","html-keyboard-response","182","589544","0.0-8.1-0.1-1.52","null","<span style='color:GreenYellow; font-size: 70px;'>正确! </span>","null","","","","","","","","","","","","","","","","","","","","","","","feedback_test"
"","","","","","psychophysics","183","591570","0.0-8.1-0.1-0.53","1024","","j","","","","","","","","","","","","","key","j","16.691933333333388","622.4999752640734","384.9999847014751","j","true","img/C_ambi40.png","生人","prac",""
"","","","","","html-keyboard-response","184","592082","0.0-8.1-0.1-1.53","null","<span style='color:GreenYellow; font-size: 70px;'>正确! </span>","null","","","","","","","","","","","","","","","","","","","","","","","feedback_test"
"","","","","","psychophysics","185","594169","0.0-8.1-0.1-0.54","1083","","j","","","","","","","","","","","","","key","j","16.693016129032326","622.4999752640734","384.9999847014751","f","false","img/H_ambi40.png","朋友","prac",""
"","","","","","html-keyboard-response","186","594680","0.0-8.1-0.1-1.54","null","<span style='color:red; font-size: 70px;'>错误! </span>","null","","","","","","","","","","","","","","","","","","","","","","","feedback_test"
"","","","","","psychophysics","187","596293","0.0-8.1-0.1-0.55","611","","j","","","","","","","","","","","","","key","j","16.69041052631617","622.4999752640734","384.9999847014751","j","true","img/T_ambi40.png","をる","prac",""
"","","","","","html-keyboard-response","188","596798","0.0-8.1-0.1-1.55","null","<span style='color:GreenYellow; font-size: 70px;'>正确! </span>","null","","","","","","","","","","","","","","","","","","","","","","","feedback_test"
"","","","","","psychophysics","189","598410","0.0-8.1-0.1-0.56","611","","j","","","","","","","","","","","","","key","j","16.68949473684188","622.4999752640734","384.9999847014751","j","true","img/H_ambi40.png","自我","prac",""
"","","","","","html-keyboard-response","190","598913","0.0-8.1-0.1-1.56","null","<span style='color:GreenYellow; font-size: 70px;'>正确! </span>","null","","","","","","","","","","","","","","","","","","","","","","","feedback_test"
"","","","","","psychophysics","191","600525","0.0-8.1-0.1-0.57","609","","j","","","","","","","","","","","","","key","j","16.690572916667104","622.4999752640734","384.9999847014751","f","false","img/S_ambi40.png","自我","prac",""
"","","","","","html-keyboard-response","192","601031","0.0-8.1-0.1-1.57","null","<span style='color:red; font-size: 70px;'>错误! </span>","null","","","","","","","","","","","","","","","","","","","","","","","feedback_test"
"","","","","","psychophysics","193","602666","0.0-8.1-0.1-0.58","633","","j","","","","","","","","","","","","","key","j","16.692010309278352","622.4999752640734","384.9999847014751","j","true","img/H_ambi40.png","自我","prac",""
"","","","","","html-keyboard-response","194","603174","0.0-8.1-0.1-1.58","null","<span style='color:GreenYellow; font-size: 70px;'>正确! </span>","null","","","","","","","","","","","","","","","","","","","","","","","feedback_test"
"","","","","","psychophysics","195","604940","0.0-8.1-0.1-0.59","764","","j","","","","","","","","","","","","","key","j","16.69105769230765","622.4999752640734","384.9999847014751","j","true","img/T_ambi40.png","をる","prac",""
"","","","","","html-keyboard-response","196","605441","0.0-8.1-0.1-1.59","null","<span style='color:GreenYellow; font-size: 70px;'>正确! </span>","null","","","","","","","","","","","","","","","","","","","","","","","feedback_test"
"","","","","","psychophysics","197","607315","0.0-8.1-0.1-0.60","869","","f","","","","","","","","","","","","","key","f","16.69058035714365","622.4999752640734","384.9999847014751","f","true","img/C_ambi40.png","自我","prac",""
"","","","","","html-keyboard-response","198","607820","0.0-8.1-0.1-1.60","null","<span style='color:GreenYellow; font-size: 70px;'>正确! </span>","null","","","","","","","","","","","","","","","","","","","","","","","feedback_test"
"","","","","","psychophysics","199","609469","0.0-8.1-0.1-0.61","647","","j","","","","","","","","","","","","","key","j","16.690693877550668","622.4999752640734","384.9999847014751","j","true","img/T_ambi40.png","をる","prac",""
"","","","","","html-keyboard-response","200","609979","0.0-8.1-0.1-1.61","null","<span style='color:GreenYellow; font-size: 70px;'>正确! </span>","null","","","","","","","","","","","","","","","","","","","","","","","feedback_test"
"","","","","","psychophysics","201","611935","0.0-8.1-0.1-0.62","954","","f","","","","","","","","","","","","","key","f","16.691370689655365","622.4999752640734","384.9999847014751","f","true","img/H_ambi40.png","生人","prac",""
"","","","","","html-keyboard-response","202","612439","0.0-8.1-0.1-1.62","null","<span style='color:GreenYellow; font-size: 70px;'>正确! </span>","null","","","","","","","","","","","","","","","","","","","","","","","feedback_test"
"","","","","","psychophysics","203","614579","0.0-8.1-0.1-0.63","1138","","f","","","","","","","","","","","","","key","f","16.690283464567596","622.4999752640734","384.9999847014751","f","true","img/S_ambi40.png","生人","prac",""
"","","","","","html-keyboard-response","204","615086","0.0-8.1-0.1-1.63","null","<span style='color:GreenYellow; font-size: 70px;'>正确! </span>","null","","","","","","","","","","","","","","","","","","","","","","","feedback_test"
"","","","","","html-keyboard-response","205","622605","0.0-9.0","7515","<style>.context{color:white; font-size: 35px; line-height:40px}</style>                          <div><p class='context'>您正确回答了78% 的试次。</p ><p class='context'>您的平均反应时为829毫秒。</p ><p class='context'>恭喜您完成练习。按任意键进入正式实验。</p ><p class='footer' style='font-size: 35px; line-height:40px;'>请在进入正式实验实验之前将您的<span style='color: lightgreen;'>食指</span>放在电脑键盘的相应键位上进行按键。</p >","j","","","","","","","","","","","","","","","","","","","","","","",""
"","","","","","psychophysics","206","624486","0.0-10.0-0.0-0.0-0.0-0.0","876","","f","","","","","","","","","","","","","key","f","16.700441441441015","622.4999752640734","384.9999847014751","f","true","img/S_ambi40.png","生人","same",""
"","","","","","html-keyboard-response","207","624997","0.0-10.0-0.0-0.0-0.0-1.0","null","<span style='color:GreenYellow; font-size: 70px;'>正确! </span>","null","","","","","","","","","","","","","","","","","","","","","","","feedback_test"
"","","","","","psychophysics","208","627017","0.0-10.0-0.0-0.0-0.0-0.1","1018","","j","","","","","","","","","","","","","key","j","16.69110833333398","622.4999752640734","384.9999847014751","j","true","img/S_ambi40.png","朋友","same",""
"","","","","","html-keyboard-response","209","627533","0.0-10.0-0.0-0.0-0.0-1.1","null","<span style='color:GreenYellow; font-size: 70px;'>正确! </span>","null","","","","","","","","","","","","","","","","","","","","","","","feedback_test"
"","","","","","psychophysics","210","629268","0.0-10.0-0.0-0.0-0.0-0.2","732","","j","","","","","","","","","","","","","key","j","16.691145631067627","622.4999752640734","384.9999847014751","j","true","img/T_ambi40.png","をる","same",""
"","","","","","html-keyboard-response","211","629771","0.0-10.0-0.0-0.0-0.0-1.2","null","<span style='color:GreenYellow; font-size: 70px;'>正确! </span>","null","","","","","","","","","","","","","","","","","","","","","","","feedback_test"
"","","","","","psychophysics","212","631393","0.0-10.0-0.0-0.0-0.0-0.3","618","","f","","","","","","","","","","","","","key","f","16.69233333333371","622.4999752640734","384.9999847014751","j","false","img/C_ambi40.png","生人","same",""
"","","","","","html-keyboard-response","213","631905","0.0-10.0-0.0-0.0-0.0-1.3","null","<span style='color:red; font-size: 70px;'>错误! </span>","null","","","","","","","","","","","","","","","","","","","","","","","feedback_test"
"","","","","","psychophysics","214","633828","0.0-10.0-0.0-0.0-0.0-0.4","921","","f","","","","","","","","","","","","","key","f","16.69103508771871","622.4999752640734","384.9999847014751","f","true","img/C_ambi40.png","朋友","same",""
"","","","","","html-keyboard-response","215","634338","0.0-10.0-0.0-0.0-0.0-1.4","null","<span style='color:GreenYellow; font-size: 70px;'>正确! </span>","null","","","","","","","","","","","","","","","","","","","","","","","feedback_test"
"","","","","","psychophysics","216","636388","0.0-10.0-0.0-0.0-0.0-0.5","1049","","f","","","","","","","","","","","","","key","f","16.69076859504119","622.4999752640734","384.9999847014751","f","true","img/C_ambi40.png","自我","same",""
"","","","","","html-keyboard-response","217","636899","0.0-10.0-0.0-0.0-0.0-1.5","null","<span style='color:GreenYellow; font-size: 70px;'>正确! </span>","null","","","","","","","","","","","","","","","","","","","","","","","feedback_test"
"","","","","","psychophysics","218","638725","0.0-10.0-0.0-0.0-0.0-0.6","823","","j","","","","","","","","","","","","","key","j","16.691537037036916","622.4999752640734","384.9999847014751","f","false","img/H_ambi40.png","朋友","same",""
"","","","","","html-keyboard-response","219","639227","0.0-10.0-0.0-0.0-0.0-1.6","null","<span style='color:red; font-size: 70px;'>错误! </span>","null","","","","","","","","","","","","","","","","","","","","","","","feedback_test"
"","","","","","psychophysics","220","640872","0.0-10.0-0.0-0.0-0.0-0.7","643","","j","","","","","","","","","","","","","key","j","16.6910721649483","622.4999752640734","384.9999847014751","f","false","img/S_ambi40.png","自我","same",""
"","","","","","html-keyboard-response","221","641385","0.0-10.0-0.0-0.0-0.0-1.7","null","<span style='color:red; font-size: 70px;'>错误! </span>","null","","","","","","","","","","","","","","","","","","","","","","","feedback_test"
"","","","","","psychophysics","222","642998","0.0-10.0-0.0-0.0-0.0-0.8","611","","j","","","","","","","","","","","","","key","j","16.69509473684195","622.4999752640734","384.9999847014751","j","true","img/H_ambi40.png","自我","same",""
"","","","","","html-keyboard-response","223","643504","0.0-10.0-0.0-0.0-0.0-1.8","null","<span style='color:GreenYellow; font-size: 70px;'>正确! </span>","null","","","","","","","","","","","","","","","","","","","","","","","feedback_test"
"","","","","","psychophysics","224","645712","0.0-10.0-0.0-0.0-0.0-0.9","1207","","f","","","","","","","","","","","","","key","f","16.69094656488613","622.4999752640734","384.9999847014751","f","true","img/C_ambi40.png","朋友","same",""
"","","","","","html-keyboard-response","225","646230","0.0-10.0-0.0-0.0-0.0-1.9","null","<span style='color:GreenYellow; font-size: 70px;'>正确! </span>","null","","","","","","","","","","","","","","","","","","","","","","","feedback_test"
"","","","","","psychophysics","226","647900","0.0-10.0-0.0-0.0-0.0-0.10","667","","j","","","","","","","","","","","","","key","j","16.692282828283638","622.4999752640734","384.9999847014751","j","true","img/T_ambi40.png","をる","same",""
"","","","","","html-keyboard-response","227","648412","0.0-10.0-0.0-0.0-0.0-1.10","null","<span style='color:GreenYellow; font-size: 70px;'>正确! </span>","null","","","","","","","","","","","","","","","","","","","","","","","feedback_test"
"","","","","","psychophysics","228","650400","0.0-10.0-0.0-0.0-0.0-0.11","986","","f","","","","","","","","","","","","","key","f","16.691127118644683","622.4999752640734","384.9999847014751","j","false","img/S_ambi40.png","朋友","same",""
"","","","","","html-keyboard-response","229","650914","0.0-10.0-0.0-0.0-0.0-1.11","null","<span style='color:red; font-size: 70px;'>错误! </span>","null","","","","","","","","","","","","","","","","","","","","","","","feedback_test"
"","","","","","psychophysics","230","652601","0.0-10.0-0.0-0.0-0.0-0.12","685","","f","","","","","","","","","","","","","key","f","16.691599999999163","622.4999752640734","384.9999847014751","j","false","img/C_ambi40.png","生人","same",""
"","","","","","html-keyboard-response","231","653114","0.0-10.0-0.0-0.0-0.0-1.12","null","<span style='color:red; font-size: 70px;'>错误! </span>","null","","","","","","","","","","","","","","","","","","","","","","","feedback_test"
"","","","","","psychophysics","232","654875","0.0-10.0-0.0-0.0-0.0-0.13","760","","j","","","","","","","","","","","","","key","j","16.690634615384624","622.4999752640734","384.9999847014751","j","true","img/T_ambi40.png","をる","same",""
"","","","","","html-keyboard-response","233","655379","0.0-10.0-0.0-0.0-0.0-1.13","null","<span style='color:GreenYellow; font-size: 70px;'>正确! </span>","null","","","","","","","","","","","","","","","","","","","","","","","feedback_test"
"","","","","","psychophysics","234","657206","0.0-10.0-0.0-0.0-0.0-0.14","824","","j","","","","","","","","","","","","","key","j","16.691018348623818","622.4999752640734","384.9999847014751","j","true","img/H_ambi40.png","自我","same",""
"","","","","","html-keyboard-response","235","657717","0.0-10.0-0.0-0.0-0.0-1.14","null","<span style='color:GreenYellow; font-size: 70px;'>正确! </span>","null","","","","","","","","","","","","","","","","","","","","","","","feedback_test"
"","","","","","psychophysics","236","659739","0.0-10.0-0.0-0.0-0.0-0.15","1020","","j","","","","","","","","","","","","","key","j","16.691041666666084","622.4999752640734","384.9999847014751","f","false","img/H_ambi40.png","生人","same",""
"","","","","","html-keyboard-response","237","660256","0.0-10.0-0.0-0.0-0.0-1.15","null","<span style='color:red; font-size: 70px;'>错误! </span>","null","","","","","","","","","","","","","","","","","","","","","","","feedback_test"
"","","","","","psychophysics","238","662254","0.0-10.0-0.0-0.0-0.0-0.16","994","","f","","","","","","","","","","","","","key","f","16.69273949579821","622.4999752640734","384.9999847014751","f","true","img/S_ambi40.png","自我","same",""
"","","","","","html-keyboard-response","239","662758","0.0-10.0-0.0-0.0-0.0-1.16","null","<span style='color:GreenYellow; font-size: 70px;'>正确! </span>","null","","","","","","","","","","","","","","","","","","","","","","","feedback_test"
"","","","","","psychophysics","240","664409","0.0-10.0-0.0-0.0-0.0-0.17","645","","j","","","","","","","","","","","","","key","j","16.6972244897969","622.4999752640734","384.9999847014751","f","false","img/H_ambi40.png","生人","same",""
"","","","","","html-keyboard-response","241","664913","0.0-10.0-0.0-0.0-0.0-1.17","null","<span style='color:red; font-size: 70px;'>错误! </span>","null","","","","","","","","","","","","","","","","","","","","","","","feedback_test"
"","","","","","psychophysics","242","666796","0.0-10.0-0.0-0.0-0.0-0.18","879","","f","","","","","","","","","","","","","key","f","16.692026785715175","622.4999752640734","384.9999847014751","f","true","img/S_ambi40.png","自我","same",""
"","","","","","html-keyboard-response","243","667298","0.0-10.0-0.0-0.0-0.0-1.18","null","<span style='color:GreenYellow; font-size: 70px;'>正确! </span>","null","","","","","","","","","","","","","","","","","","","","","","","feedback_test"
"","","","","","psychophysics","244","669068","0.0-10.0-0.0-0.0-0.0-0.19","769","","f","","","","","","","","","","","","","key","f","16.69160000000016","622.4999752640734","384.9999847014751","j","false","img/C_ambi40.png","生人","same",""
"","","","","","html-keyboard-response","245","669579","0.0-10.0-0.0-0.0-0.0-1.19","null","<span style='color:red; font-size: 70px;'>错误! </span>","null","","","","","","","","","","","","","","","","","","","","","","","feedback_test"
"","","","","","psychophysics","246","671609","0.0-10.0-0.0-0.0-0.0-0.20","1028","","f","","","","","","","","","","","","","key","f","16.689833333333567","622.4999752640734","384.9999847014751","f","true","img/S_ambi40.png","自我","same",""
"","","","","","html-keyboard-response","247","672114","0.0-10.0-0.0-0.0-0.0-1.20","null","<span style='color:GreenYellow; font-size: 70px;'>正确! </span>","null","","","","","","","","","","","","","","","","","","","","","","","feedback_test"
"","","","","","psychophysics","248","674618","0.0-10.0-0.0-0.0-0.0-0.21","null","","null","","","","","","","","","","","","","key","null","16.68970469798621","622.4999752640734","384.9999847014751","f","false","img/H_ambi40.png","生人","same",""
"","","","","","html-keyboard-response","249","675128","0.0-10.0-0.0-0.0-0.0-1.21","null","<span class='add_' style='color:yellow; font-size: 70px;'> 太慢! </span>","null","","","","","","","","","","","","","","","","","","","","","","","feedback_test"
"","","","","","psychophysics","250","677337","0.0-10.0-0.0-0.0-0.0-0.22","1206","","f","","","","","","","","","","","","","key","f","16.584923664122137","622.4999752640734","384.9999847014751","f","true","img/H_ambi40.png","朋友","same",""
"","","","","","html-keyboard-response","251","677844","0.0-10.0-0.0-0.0-0.0-1.22","null","<span style='color:GreenYellow; font-size: 70px;'>正确! </span>","null","","","","","","","","","","","","","","","","","","","","","","","feedback_test"
"","","","","","psychophysics","252","679678","0.0-10.0-0.0-0.0-0.0-0.23","832","","j","","","","","","","","","","","","","key","j","16.69246788990765","622.4999752640734","384.9999847014751","j","true","img/H_ambi40.png","自我","same",""
"","","","","","html-keyboard-response","253","680182","0.0-10.0-0.0-0.0-0.0-1.23","null","<span style='color:GreenYellow; font-size: 70px;'>正确! </span>","null","","","","","","","","","","","","","","","","","","","","","","","feedback_test"
"","","","","","psychophysics","254","682110","0.0-10.0-0.0-0.0-0.0-0.24","926","","j","","","","","","","","","","","","","key","j","16.69166086956494","622.4999752640734","384.9999847014751","j","true","img/H_ambi40.png","自我","same",""
"","","","","","html-keyboard-response","255","682614","0.0-10.0-0.0-0.0-0.0-1.24","null","<span style='color:GreenYellow; font-size: 70px;'>正确! </span>","null","","","","","","","","","","","","","","","","","","","","","","","feedback_test"
"","","","","","psychophysics","256","684536","0.0-10.0-0.0-0.0-0.0-0.25","920","","j","","","","","","","","","","","","","key","j","16.691605263157836","622.4999752640734","384.9999847014751","j","true","img/C_ambi40.png","生人","same",""
"","","","","","html-keyboard-response","257","685048","0.0-10.0-0.0-0.0-0.0-1.25","null","<span style='color:GreenYellow; font-size: 70px;'>正确! </span>","null","","","","","","","","","","","","","","","","","","","","","","","feedback_test"
"","","","","","psychophysics","258","686751","0.0-10.0-0.0-0.0-0.0-0.26","701","","f","","","","","","","","","","","","","key","f","16.6904356435649","622.4999752640734","384.9999847014751","f","true","img/C_ambi40.png","朋友","same",""
"","","","","","html-keyboard-response","259","687254","0.0-10.0-0.0-0.0-0.0-1.26","null","<span style='color:GreenYellow; font-size: 70px;'>正确! </span>","null","","","","","","","","","","","","","","","","","","","","","","","feedback_test"
"","","","","","psychophysics","260","689528","0.0-10.0-0.0-0.0-0.0-0.27","1271","","f","","","","","","","","","","","","","key","f","16.691540740739935","622.4999752640734","384.9999847014751","f","true","img/C_ambi40.png","自我","same",""
"","","","","","html-keyboard-response","261","690032","0.0-10.0-0.0-0.0-0.0-1.27","null","<span style='color:GreenYellow; font-size: 70px;'>正确! </span>","null","","","","","","","","","","","","","","","","","","","","","","","feedback_test"
"","","","","","psychophysics","262","692190","0.0-10.0-0.0-0.0-0.0-0.28","1156","","j","","","","","","","","","","","","","key","j","16.691434108526735","622.4999752640734","384.9999847014751","j","true","img/S_ambi40.png","朋友","same",""
"","","","","","html-keyboard-response","263","692696","0.0-10.0-0.0-0.0-0.0-1.28","null","<span style='color:GreenYellow; font-size: 70px;'>正确! </span>","null","","","","","","","","","","","","","","","","","","","","","","","feedback_test"
"","","","","","psychophysics","264","694656","0.0-10.0-0.0-0.0-0.0-0.29","957","","f","","","","","","","","","","","","","key","f","16.69181896551765","622.4999752640734","384.9999847014751","f","true","img/C_ambi40.png","朋友","same",""
"","","","","","html-keyboard-response","265","695164","0.0-10.0-0.0-0.0-0.0-1.29","null","<span style='color:GreenYellow; font-size: 70px;'>正确! </span>","null","","","","","","","","","","","","","","","","","","","","","","","feedback_test"
"","","","","","psychophysics","266","696856","0.0-10.0-0.0-0.0-0.0-0.30","690","","f","","","","","","","","","","","","","key","f","16.692240000000456","622.4999752640734","384.9999847014751","j","false","img/S_ambi40.png","朋友","same",""
"","","","","","html-keyboard-response","267","697371","0.0-10.0-0.0-0.0-0.0-1.30","null","<span style='color:red; font-size: 70px;'>错误! </span>","null","","","","","","","","","","","","","","","","","","","","","","","feedback_test"
"","","","","","psychophysics","268","699141","0.0-10.0-0.0-0.0-0.0-0.31","767","","f","","","","","","","","","","","","","key","f","16.69217142857101","622.4999752640734","384.9999847014751","f","true","img/S_ambi40.png","生人","same",""
"","","","","","html-keyboard-response","269","699653","0.0-10.0-0.0-0.0-0.0-1.31","null","<span style='color:GreenYellow; font-size: 70px;'>正确! </span>","null","","","","","","","","","","","","","","","","","","","","","","","feedback_test"
"","","","","","psychophysics","270","701292","0.0-10.0-0.0-0.0-0.0-0.32","636","","j","","","","","","","","","","","","","key","j","16.692556701031677","622.4999752640734","384.9999847014751","j","true","img/T_ambi40.png","をる","same",""
"","","","","","html-keyboard-response","271","701796","0.0-10.0-0.0-0.0-0.0-1.32","null","<span style='color:GreenYellow; font-size: 70px;'>正确! </span>","null","","","","","","","","","","","","","","","","","","","","","","","feedback_test"
"","","","","","psychophysics","272","703548","0.0-10.0-0.0-0.0-0.0-0.33","750","","j","","","","","","","","","","","","","key","j","16.691548076923937","622.4999752640734","384.9999847014751","j","true","img/T_ambi40.png","をる","same",""
"","","","","","html-keyboard-response","273","704058","0.0-10.0-0.0-0.0-0.0-1.33","null","<span style='color:GreenYellow; font-size: 70px;'>正确! </span>","null","","","","","","","","","","","","","","","","","","","","","","","feedback_test"
"","","","","","psychophysics","274","706249","0.0-10.0-0.0-0.0-0.0-0.34","1189","","f","","","","","","","","","","","","","key","f","16.696092307692073","622.4999752640734","384.9999847014751","f","true","img/H_ambi40.png","生人","same",""
"","","","","","html-keyboard-response","275","706755","0.0-10.0-0.0-0.0-0.0-1.34","null","<span style='color:GreenYellow; font-size: 70px;'>正确! </span>","null","","","","","","","","","","","","","","","","","","","","","","","feedback_test"
"","","","","","psychophysics","276","708419","0.0-10.0-0.0-0.0-0.0-0.35","662","","f","","","","","","","","","","","","","key","f","16.69247474747409","622.4999752640734","384.9999847014751","j","false","img/T_ambi40.png","をる","same",""
"","","","","","html-keyboard-response","277","708934","0.0-10.0-0.0-0.0-0.0-1.35","null","<span style='color:red; font-size: 70px;'>错误! </span>","null","","","","","","","","","","","","","","","","","","","","","","","feedback_test"
"","","","","","psychophysics","278","710600","0.0-10.0-0.0-0.0-0.0-0.36","662","","f","","","","","","","","","","","","","key","f","16.69531632653005","622.4999752640734","384.9999847014751","f","true","img/S_ambi40.png","生人","same",""
"","","","","","html-keyboard-response","279","711112","0.0-10.0-0.0-0.0-0.0-1.36","null","<span style='color:GreenYellow; font-size: 70px;'>正确! </span>","null","","","","","","","","","","","","","","","","","","","","","","","feedback_test"
"","","","","","psychophysics","280","712984","0.0-10.0-0.0-0.0-0.0-0.37","870","","j","","","","","","","","","","","","","key","j","16.691405405405792","622.4999752640734","384.9999847014751","j","true","img/S_ambi40.png","朋友","same",""
"","","","","","html-keyboard-response","281","713489","0.0-10.0-0.0-0.0-0.0-1.37","null","<span style='color:GreenYellow; font-size: 70px;'>正确! </span>","null","","","","","","","","","","","","","","","","","","","","","","","feedback_test"
"","","","","","psychophysics","282","715070","0.0-10.0-0.0-0.0-0.0-0.38","579","","j","","","","","","","","","","","","","key","j","16.685602150538244","622.4999752640734","384.9999847014751","j","true","img/H_ambi40.png","自我","same",""
"","","","","","html-keyboard-response","283","715578","0.0-10.0-0.0-0.0-0.0-1.38","null","<span style='color:GreenYellow; font-size: 70px;'>正确! </span>","null","","","","","","","","","","","","","","","","","","","","","","","feedback_test"
"","","","","","psychophysics","284","717400","0.0-10.0-0.0-0.0-0.0-0.39","818","","f","","","","","","","","","","","","","key","f","16.686379629629233","622.4999752640734","384.9999847014751","j","false","img/H_ambi40.png","自我","same",""
"","","","","","html-keyboard-response","285","717915","0.0-10.0-0.0-0.0-0.0-1.39","null","<span style='color:red; font-size: 70px;'>错误! </span>","null","","","","","","","","","","","","","","","","","","","","","","","feedback_test"
"","","","","","psychophysics","286","719660","0.0-10.0-0.0-0.0-0.0-0.40","743","","f","","","","","","","","","","","","","key","f","16.686533980583548","622.4999752640734","384.9999847014751","f","true","img/H_ambi40.png","朋友","same",""
"","","","","","html-keyboard-response","287","720162","0.0-10.0-0.0-0.0-0.0-1.40","null","<span style='color:GreenYellow; font-size: 70px;'>正确! </span>","null","","","","","","","","","","","","","","","","","","","","","","","feedback_test"
"","","","","","psychophysics","288","721807","0.0-10.0-0.0-0.0-0.0-0.41","642","","j","","","","","","","","","","","","","key","j","16.56434020618476","622.4999752640734","384.9999847014751","j","true","img/T_ambi40.png","をる","same",""
"","","","","","html-keyboard-response","289","722314","0.0-10.0-0.0-0.0-0.0-1.41","null","<span style='color:GreenYellow; font-size: 70px;'>正确! </span>","null","","","","","","","","","","","","","","","","","","","","","","","feedback_test"
"","","","","","psychophysics","290","723892","0.0-10.0-0.0-0.0-0.0-0.42","573","","f","","","","","","","","","","","","","key","f","16.69073404255323","622.4999752640734","384.9999847014751","j","false","img/C_ambi40.png","生人","same",""
"","","","","","html-keyboard-response","291","724393","0.0-10.0-0.0-0.0-0.0-1.42","null","<span style='color:red; font-size: 70px;'>错误! </span>","null","","","","","","","","","","","","","","","","","","","","","","","feedback_test"
"","","","","","psychophysics","292","726134","0.0-10.0-0.0-0.0-0.0-0.43","740","","j","","","","","","","","","","","","","key","j","16.688990291262282","622.4999752640734","384.9999847014751","j","true","img/C_ambi40.png","生人","same",""
"","","","","","html-keyboard-response","293","726647","0.0-10.0-0.0-0.0-0.0-1.43","null","<span style='color:GreenYellow; font-size: 70px;'>正确! </span>","null","","","","","","","","","","","","","","","","","","","","","","","feedback_test"
"","","","","","psychophysics","294","728331","0.0-10.0-0.0-0.0-0.0-0.44","683","","f","","","","","","","","","","","","","key","f","16.692320000000763","622.4999752640734","384.9999847014751","f","true","img/C_ambi40.png","自我","same",""
"","","","","","html-keyboard-response","295","728835","0.0-10.0-0.0-0.0-0.0-1.44","null","<span style='color:GreenYellow; font-size: 70px;'>正确! </span>","null","","","","","","","","","","","","","","","","","","","","","","","feedback_test"
"","","","","","psychophysics","296","730844","0.0-10.0-0.0-0.0-0.0-0.45","1007","","f","","","","","","","","","","","","","key","f","16.69205042016849","622.4999752640734","384.9999847014751","f","true","img/H_ambi40.png","生人","same",""
"","","","","","html-keyboard-response","297","731351","0.0-10.0-0.0-0.0-0.0-1.45","null","<span style='color:GreenYellow; font-size: 70px;'>正确! </span>","null","","","","","","","","","","","","","","","","","","","","","","","feedback_test"
"","","","","","psychophysics","298","733694","0.0-10.0-0.0-0.0-0.0-0.46","1341","","f","","","","","","","","","","","","","key","f","16.691669064748147","622.4999752640734","384.9999847014751","f","true","img/S_ambi40.png","自我","same",""
"","","","","","html-keyboard-response","299","734200","0.0-10.0-0.0-0.0-0.0-1.46","null","<span style='color:GreenYellow; font-size: 70px;'>正确! </span>","null","","","","","","","","","","","","","","","","","","","","","","","feedback_test"
"","","","","","psychophysics","300","736100","0.0-10.0-0.0-0.0-0.0-0.47","898","","f","","","","","","","","","","","","","key","f","16.69138392857089","622.4999752640734","384.9999847014751","f","true","img/H_ambi40.png","生人","same",""
"","","","","","html-keyboard-response","301","736615","0.0-10.0-0.0-0.0-0.0-1.47","null","<span style='color:GreenYellow; font-size: 70px;'>正确! </span>","null","","","","","","","","","","","","","","","","","","","","","","","feedback_test"
"","","","","","psychophysics","302","738287","0.0-10.0-0.0-0.0-0.0-0.48","669","","j","","","","","","","","","","","","","key","j","16.691676767675837","622.4999752640734","384.9999847014751","j","true","img/T_ambi40.png","をる","same",""
"","","","","","html-keyboard-response","303","738791","0.0-10.0-0.0-0.0-0.0-1.48","null","<span style='color:GreenYellow; font-size: 70px;'>正确! </span>","null","","","","","","","","","","","","","","","","","","","","","","","feedback_test"
"","","","","","psychophysics","304","740705","0.0-10.0-0.0-0.0-0.0-0.49","912","","j","","","","","","","","","","","","","key","j","16.69212389380498","622.4999752640734","384.9999847014751","j","true","img/S_ambi40.png","朋友","same",""
"","","","","","html-keyboard-response","305","741206","0.0-10.0-0.0-0.0-0.0-1.49","null","<span style='color:GreenYellow; font-size: 70px;'>正确! </span>","null","","","","","","","","","","","","","","","","","","","","","","","feedback_test"
"","","","","","psychophysics","306","743005","0.0-10.0-0.0-0.0-0.0-0.50","792","","f","","","","","","","","","","","","","key","f","16.6952897196257","622.4999752640734","384.9999847014751","f","true","img/C_ambi40.png","朋友","same",""
"","","","","","html-keyboard-response","307","743519","0.0-10.0-0.0-0.0-0.0-1.50","null","<span style='color:GreenYellow; font-size: 70px;'>正确! </span>","null","","","","","","","","","","","","","","","","","","","","","","","feedback_test"
"","","","","","psychophysics","308","745448","0.0-10.0-0.0-0.0-0.0-0.51","928","","j","","","","","","","","","","","","","key","j","16.693298245613718","622.4999752640734","384.9999847014751","f","false","img/C_ambi40.png","朋友","same",""
"","","","","","html-keyboard-response","309","745959","0.0-10.0-0.0-0.0-0.0-1.51","null","<span style='color:red; font-size: 70px;'>错误! </span>","null","","","","","","","","","","","","","","","","","","","","","","","feedback_test"
"","","","","","psychophysics","310","747739","0.0-10.0-0.0-0.0-0.0-0.52","778","","f","","","","","","","","","","","","","key","f","16.691254716980456","622.4999752640734","384.9999847014751","f","true","img/S_ambi40.png","自我","same",""
"","","","","","html-keyboard-response","311","748243","0.0-10.0-0.0-0.0-0.0-1.52","null","<span style='color:GreenYellow; font-size: 70px;'>正确! </span>","null","","","","","","","","","","","","","","","","","","","","","","","feedback_test"
"","","","","","psychophysics","312","749898","0.0-10.0-0.0-0.0-0.0-0.53","652","","j","","","","","","","","","","","","","key","j","16.692377551020435","622.4999752640734","384.9999847014751","j","true","img/T_ambi40.png","をる","same",""
"","","","","","html-keyboard-response","313","750404","0.0-10.0-0.0-0.0-0.0-1.53","null","<span style='color:GreenYellow; font-size: 70px;'>正确! </span>","null","","","","","","","","","","","","","","","","","","","","","","","feedback_test"
"","","","","","psychophysics","314","752030","0.0-10.0-0.0-0.0-0.0-0.54","620","","f","","","","","","","","","","","","","key","f","16.692360824742114","622.4999752640734","384.9999847014751","j","false","img/S_ambi40.png","朋友","same",""
"","","","","","html-keyboard-response","315","752545","0.0-10.0-0.0-0.0-0.0-1.54","null","<span style='color:red; font-size: 70px;'>错误! </span>","null","","","","","","","","","","","","","","","","","","","","","","","feedback_test"
"","","","","","psychophysics","316","754298","0.0-10.0-0.0-0.0-0.0-0.55","751","","f","","","","","","","","","","","","","key","f","16.693432692307397","622.4999752640734","384.9999847014751","j","false","img/C_ambi40.png","生人","same",""
"","","","","","html-keyboard-response","317","754804","0.0-10.0-0.0-0.0-0.0-1.55","null","<span style='color:red; font-size: 70px;'>错误! </span>","null","","","","","","","","","","","","","","","","","","","","","","","feedback_test"
"","","","","","psychophysics","318","756514","0.0-10.0-0.0-0.0-0.0-0.56","707","","j","","","","","","","","","","","","","key","j","16.692059405941038","622.4999752640734","384.9999847014751","j","true","img/T_ambi40.png","をる","same",""
"","","","","","html-keyboard-response","319","757017","0.0-10.0-0.0-0.0-0.0-1.56","null","<span style='color:GreenYellow; font-size: 70px;'>正确! </span>","null","","","","","","","","","","","","","","","","","","","","","","","feedback_test"
"","","","","","psychophysics","320","758737","0.0-10.0-0.0-0.0-0.0-0.57","718","","f","","","","","","","","","","","","","key","f","16.69136633663346","622.4999752640734","384.9999847014751","f","true","img/C_ambi40.png","朋友","same",""
"","","","","","html-keyboard-response","321","759253","0.0-10.0-0.0-0.0-0.0-1.57","null","<span style='color:GreenYellow; font-size: 70px;'>正确! </span>","null","","","","","","","","","","","","","","","","","","","","","","","feedback_test"
"","","","","","psychophysics","322","760802","0.0-10.0-0.0-0.0-0.0-0.58","547","","f","","","","","","","","","","","","","key","f","16.693043956043105","622.4999752640734","384.9999847014751","j","false","img/C_ambi40.png","生人","same",""
"","","","","","html-keyboard-response","323","761307","0.0-10.0-0.0-0.0-0.0-1.58","null","<span style='color:red; font-size: 70px;'>错误! </span>","null","","","","","","","","","","","","","","","","","","","","","","","feedback_test"
"","","","","","psychophysics","324","763468","0.0-10.0-0.0-0.0-0.0-0.59","1160","","f","","","","","","","","","","","","","key","f","16.689984374999767","622.4999752640734","384.9999847014751","j","false","img/H_ambi40.png","自我","same",""
"","","","","","html-keyboard-response","325","763980","0.0-10.0-0.0-0.0-0.0-1.59","null","<span style='color:red; font-size: 70px;'>错误! </span>","null","","","","","","","","","","","","","","","","","","","","","","","feedback_test"
"","","","","","psychophysics","326","766362","0.0-10.0-0.0-0.0-0.0-0.60","1379","","f","","","","","","","","","","","","","key","f","16.69151063829806","622.4999752640734","384.9999847014751","f","true","img/S_ambi40.png","生人","same",""
"","","","","","html-keyboard-response","327","766871","0.0-10.0-0.0-0.0-0.0-1.60","null","<span style='color:GreenYellow; font-size: 70px;'>正确! </span>","null","","","","","","","","","","","","","","","","","","","","","","","feedback_test"
"","","","","","psychophysics","328","768756","0.0-10.0-0.0-0.0-0.0-0.61","883","","f","","","","","","","","","","","","","key","f","16.688107142856875","622.4999752640734","384.9999847014751","f","true","img/C_ambi40.png","朋友","same",""
"","","","","","html-keyboard-response","329","769269","0.0-10.0-0.0-0.0-0.0-1.61","null","<span style='color:GreenYellow; font-size: 70px;'>正确! </span>","null","","","","","","","","","","","","","","","","","","","","","","","feedback_test"
"","","","","","psychophysics","330","771302","0.0-10.0-0.0-0.0-0.0-0.62","1030","","f","","","","","","","","","","","","","key","f","16.691116666666737","622.4999752640734","384.9999847014751","f","true","img/C_ambi40.png","自我","same",""
"","","","","","html-keyboard-response","331","771815","0.0-10.0-0.0-0.0-0.0-1.62","null","<span style='color:GreenYellow; font-size: 70px;'>正确! </span>","null","","","","","","","","","","","","","","","","","","","","","","","feedback_test"
"","","","","","psychophysics","332","773404","0.0-10.0-0.0-0.0-0.0-0.63","587","","j","","","","","","","","","","","","","key","j","16.69128723404162","622.4999752640734","384.9999847014751","j","true","img/T_ambi40.png","をる","same",""
"","","","","","html-keyboard-response","333","773915","0.0-10.0-0.0-0.0-0.0-1.63","null","<span style='color:GreenYellow; font-size: 70px;'>正确! </span>","null","","","","","","","","","","","","","","","","","","","","","","","feedback_test"
"","","","","","psychophysics","334","775885","0.0-10.0-0.0-0.0-0.0-0.64","969","","j","","","","","","","","","","","","","key","j","16.69192307692272","622.4999752640734","384.9999847014751","j","true","img/H_ambi40.png","自我","same",""
"","","","","","html-keyboard-response","335","776393","0.0-10.0-0.0-0.0-0.0-1.64","null","<span style='color:GreenYellow; font-size: 70px;'>正确! </span>","null","","","","","","","","","","","","","","","","","","","","","","","feedback_test"
"","","","","","psychophysics","336","778016","0.0-10.0-0.0-0.0-0.0-0.65","619","","j","","","","","","","","","","","","","key","j","16.69194845360771","622.4999752640734","384.9999847014751","j","true","img/T_ambi40.png","をる","same",""
"","","","","","html-keyboard-response","337","778526","0.0-10.0-0.0-0.0-0.0-1.65","null","<span style='color:GreenYellow; font-size: 70px;'>正确! </span>","null","","","","","","","","","","","","","","","","","","","","","","","feedback_test"
"","","","","","psychophysics","338","780592","0.0-10.0-0.0-0.0-0.0-0.66","1064","","f","","","","","","","","","","","","","key","f","16.684439024390137","622.4999752640734","384.9999847014751","f","true","img/S_ambi40.png","自我","same",""
"","","","","","html-keyboard-response","339","781104","0.0-10.0-0.0-0.0-0.0-1.66","null","<span style='color:GreenYellow; font-size: 70px;'>正确! </span>","null","","","","","","","","","","","","","","","","","","","","","","","feedback_test"
"","","","","","psychophysics","340","782910","0.0-10.0-0.0-0.0-0.0-0.67","805","","j","","","","","","","","","","","","","key","j","16.690065420561286","622.4999752640734","384.9999847014751","j","true","img/S_ambi40.png","朋友","same",""
"","","","","","html-keyboard-response","341","783423","0.0-10.0-0.0-0.0-0.0-1.67","null","<span style='color:GreenYellow; font-size: 70px;'>正确! </span>","null","","","","","","","","","","","","","","","","","","","","","","","feedback_test"
"","","","","","psychophysics","342","785224","0.0-10.0-0.0-0.0-0.0-0.68","799","","f","","","","","","","","","","","","","key","f","16.691537735849742","622.4999752640734","384.9999847014751","f","true","img/H_ambi40.png","朋友","same",""
"","","","","","html-keyboard-response","343","785735","0.0-10.0-0.0-0.0-0.0-1.68","null","<span style='color:GreenYellow; font-size: 70px;'>正确! </span>","null","","","","","","","","","","","","","","","","","","","","","","","feedback_test"
"","","","","","psychophysics","344","787360","0.0-10.0-0.0-0.0-0.0-0.69","623","","j","","","","","","","","","","","","","key","j","16.69260416666778","622.4999752640734","384.9999847014751","f","false","img/H_ambi40.png","生人","same",""
"","","","","","html-keyboard-response","345","787865","0.0-10.0-0.0-0.0-0.0-1.69","null","<span style='color:red; font-size: 70px;'>错误! </span>","null","","","","","","","","","","","","","","","","","","","","","","","feedback_test"
"","","","","","psychophysics","346","789937","0.0-10.0-0.0-0.0-0.0-0.70","1070","","f","","","","","","","","","","","","","key","f","16.69722764227611","622.4999752640734","384.9999847014751","f","true","img/H_ambi40.png","生人","same",""
"","","","","","html-keyboard-response","347","790442","0.0-10.0-0.0-0.0-0.0-1.70","null","<span style='color:GreenYellow; font-size: 70px;'>正确! </span>","null","","","","","","","","","","","","","","","","","","","","","","","feedback_test"
"","","","","","psychophysics","348","792416","0.0-10.0-0.0-0.0-0.0-0.71","971","","f","","","","","","","","","","","","","key","f","16.691803418803346","622.4999752640734","384.9999847014751","f","true","img/S_ambi40.png","自我","same",""
"","","","","","html-keyboard-response","349","792918","0.0-10.0-0.0-0.0-0.0-1.71","null","<span style='color:GreenYellow; font-size: 70px;'>正确! </span>","null","","","","","","","","","","","","","","","","","","","","","","","feedback_test"
"","","","","","psychophysics","350","794744","0.0-10.0-0.0-0.0-0.0-0.72","822","","j","","","","","","","","","","","","","key","j","16.690431192661464","622.4999752640734","384.9999847014751","j","true","img/S_ambi40.png","朋友","same",""
"","","","","","html-keyboard-response","351","795250","0.0-10.0-0.0-0.0-0.0-1.72","null","<span style='color:GreenYellow; font-size: 70px;'>正确! </span>","null","","","","","","","","","","","","","","","","","","","","","","","feedback_test"
"","","","","","psychophysics","352","796995","0.0-10.0-0.0-0.0-0.0-0.73","743","","f","","","","","","","","","","","","","key","f","16.69274999999974","622.4999752640734","384.9999847014751","f","true","img/H_ambi40.png","生人","same",""
"","","","","","html-keyboard-response","353","797497","0.0-10.0-0.0-0.0-0.0-1.73","null","<span style='color:GreenYellow; font-size: 70px;'>正确! </span>","null","","","","","","","","","","","","","","","","","","","","","","","feedback_test"
"","","","","","psychophysics","354","799053","0.0-10.0-0.0-0.0-0.0-0.74","554","","j","","","","","","","","","","","","","key","j","16.691619565216925","622.4999752640734","384.9999847014751","j","true","img/T_ambi40.png","をる","same",""
"","","","","","html-keyboard-response","355","799564","0.0-10.0-0.0-0.0-0.0-1.74","null","<span style='color:GreenYellow; font-size: 70px;'>正确! </span>","null","","","","","","","","","","","","","","","","","","","","","","","feedback_test"
"","","","","","psychophysics","356","801434","0.0-10.0-0.0-0.0-0.0-0.75","869","","f","","","","","","","","","","","","","key","f","16.689657657657886","622.4999752640734","384.9999847014751","j","false","img/T_ambi40.png","をる","same",""
"","","","","","html-keyboard-response","357","801950","0.0-10.0-0.0-0.0-0.0-1.75","null","<span style='color:red; font-size: 70px;'>错误! </span>","null","","","","","","","","","","","","","","","","","","","","","","","feedback_test"
"","","","","","psychophysics","358","803560","0.0-10.0-0.0-0.0-0.0-0.76","608","","f","","","","","","","","","","","","","key","f","16.69072631579015","622.4999752640734","384.9999847014751","j","false","img/C_ambi40.png","生人","same",""
"","","","","","html-keyboard-response","359","804063","0.0-10.0-0.0-0.0-0.0-1.76","null","<span style='color:red; font-size: 70px;'>错误! </span>","null","","","","","","","","","","","","","","","","","","","","","","","feedback_test"
"","","","","","psychophysics","360","806086","0.0-10.0-0.0-0.0-0.0-0.77","1020","","f","","","","","","","","","","","","","key","f","16.688908333333288","622.4999752640734","384.9999847014751","f","true","img/C_ambi40.png","朋友","same",""
"","","","","","html-keyboard-response","361","806589","0.0-10.0-0.0-0.0-0.0-1.77","null","<span style='color:GreenYellow; font-size: 70px;'>正确! </span>","null","","","","","","","","","","","","","","","","","","","","","","","feedback_test"
"","","","","","psychophysics","362","808647","0.0-10.0-0.0-0.0-0.0-0.78","1054","","f","","","","","","","","","","","","","key","f","16.589106557376446","622.4999752640734","384.9999847014751","f","true","img/C_ambi40.png","朋友","same",""
"","","","","","html-keyboard-response","363","809155","0.0-10.0-0.0-0.0-0.0-1.78","null","<span style='color:GreenYellow; font-size: 70px;'>正确! </span>","null","","","","","","","","","","","","","","","","","","","","","","","feedback_test"
"","","","","","psychophysics","364","811205","0.0-10.0-0.0-0.0-0.0-0.79","1043","","f","","","","","","","","","","","","","key","f","16.692368852459353","622.4999752640734","384.9999847014751","f","true","img/H_ambi40.png","朋友","same",""
"","","","","","html-keyboard-response","365","811706","0.0-10.0-0.0-0.0-0.0-1.79","null","<span style='color:GreenYellow; font-size: 70px;'>正确! </span>","null","","","","","","","","","","","","","","","","","","","","","","","feedback_test"
"","","","","","psychophysics","366","813472","0.0-10.0-0.0-0.0-0.0-0.80","763","","j","","","","","","","","","","","","","key","j","16.69177142857086","622.4999752640734","384.9999847014751","f","false","img/C_ambi40.png","自我","same",""
"","","","","","html-keyboard-response","367","813979","0.0-10.0-0.0-0.0-0.0-1.80","null","<span style='color:red; font-size: 70px;'>错误! </span>","null","","","","","","","","","","","","","","","","","","","","","","","feedback_test"
"","","","","","psychophysics","368","816003","0.0-10.0-0.0-0.0-0.0-0.81","1022","","f","","","","","","","","","","","","","key","f","16.691041666666084","622.4999752640734","384.9999847014751","f","true","img/S_ambi40.png","自我","same",""
"","","","","","html-keyboard-response","369","816508","0.0-10.0-0.0-0.0-0.0-1.81","null","<span style='color:GreenYellow; font-size: 70px;'>正确! </span>","null","","","","","","","","","","","","","","","","","","","","","","","feedback_test"
"","","","","","psychophysics","370","818730","0.0-10.0-0.0-0.0-0.0-0.82","1219","","f","","","","","","","","","","","","","key","f","16.691272727272008","622.4999752640734","384.9999847014751","f","true","img/S_ambi40.png","生人","same",""
"","","","","","html-keyboard-response","371","819237","0.0-10.0-0.0-0.0-0.0-1.82","null","<span style='color:GreenYellow; font-size: 70px;'>正确! </span>","null","","","","","","","","","","","","","","","","","","","","","","","feedback_test"
"","","","","","psychophysics","372","820947","0.0-10.0-0.0-0.0-0.0-0.83","708","","j","","","","","","","","","","","","","key","j","16.691225490196125","622.4999752640734","384.9999847014751","j","true","img/C_ambi40.png","生人","same",""
"","","","","","html-keyboard-response","373","821451","0.0-10.0-0.0-0.0-0.0-1.83","null","<span style='color:GreenYellow; font-size: 70px;'>正确! </span>","null","","","","","","","","","","","","","","","","","","","","","","","feedback_test"
"","","","","","psychophysics","374","823232","0.0-10.0-0.0-0.0-0.0-0.84","779","","j","","","","","","","","","","","","","key","j","16.691276190475385","622.4999752640734","384.9999847014751","j","true","img/S_ambi40.png","朋友","same",""
"","","","","","html-keyboard-response","375","823742","0.0-10.0-0.0-0.0-0.0-1.84","null","<span style='color:GreenYellow; font-size: 70px;'>正确! </span>","null","","","","","","","","","","","","","","","","","","","","","","","feedback_test"
"","","","","","psychophysics","376","825317","0.0-10.0-0.0-0.0-0.0-0.85","573","","j","","","","","","","","","","","","","key","j","16.691849462366264","622.4999752640734","384.9999847014751","j","true","img/H_ambi40.png","自我","same",""
"","","","","","html-keyboard-response","377","825825","0.0-10.0-0.0-0.0-0.0-1.85","null","<span style='color:GreenYellow; font-size: 70px;'>正确! </span>","null","","","","","","","","","","","","","","","","","","","","","","","feedback_test"
"","","","","","psychophysics","378","827439","0.0-10.0-0.0-0.0-0.0-0.86","613","","j","","","","","","","","","","","","","key","j","16.69085416666591","622.4999752640734","384.9999847014751","j","true","img/H_ambi40.png","自我","same",""
"","","","","","html-keyboard-response","379","827944","0.0-10.0-0.0-0.0-0.0-1.86","null","<span style='color:GreenYellow; font-size: 70px;'>正确! </span>","null","","","","","","","","","","","","","","","","","","","","","","","feedback_test"
"","","","","","psychophysics","380","830061","0.0-10.0-0.0-0.0-0.0-0.87","1115","","f","","","","","","","","","","","","","key","f","16.691841269841433","622.4999752640734","384.9999847014751","f","true","img/S_ambi40.png","自我","same",""
"","","","","","html-keyboard-response","381","830576","0.0-10.0-0.0-0.0-0.0-1.87","null","<span style='color:GreenYellow; font-size: 70px;'>正确! </span>","null","","","","","","","","","","","","","","","","","","","","","","","feedback_test"
"","","","","","psychophysics","382","832148","0.0-10.0-0.0-0.0-0.0-0.88","570","","j","","","","","","","","","","","","","key","j","16.689913978493493","622.4999752640734","384.9999847014751","j","true","img/T_ambi40.png","をる","same",""
"","","","","","html-keyboard-response","383","832658","0.0-10.0-0.0-0.0-0.0-1.88","null","<span style='color:GreenYellow; font-size: 70px;'>正确! </span>","null","","","","","","","","","","","","","","","","","","","","","","","feedback_test"
"","","","","","psychophysics","384","834390","0.0-10.0-0.0-0.0-0.0-0.89","730","","j","","","","","","","","","","","","","key","j","16.690864077669758","622.4999752640734","384.9999847014751","f","false","img/H_ambi40.png","生人","same",""
"","","","","","html-keyboard-response","385","834897","0.0-10.0-0.0-0.0-0.0-1.89","null","<span style='color:red; font-size: 70px;'>错误! </span>","null","","","","","","","","","","","","","","","","","","","","","","","feedback_test"
"","","","","","psychophysics","386","836584","0.0-10.0-0.0-0.0-0.0-0.90","684","","j","","","","","","","","","","","","","key","j","16.560787878787107","622.4999752640734","384.9999847014751","j","true","img/H_ambi40.png","自我","same",""
"","","","","","html-keyboard-response","387","837093","0.0-10.0-0.0-0.0-0.0-1.90","null","<span style='color:GreenYellow; font-size: 70px;'>正确! </span>","null","","","","","","","","","","","","","","","","","","","","","","","feedback_test"
"","","","","","psychophysics","388","838715","0.0-10.0-0.0-0.0-0.0-0.91","620","","f","","","","","","","","","","","","","key","f","16.69081249999969","622.4999752640734","384.9999847014751","j","false","img/S_ambi40.png","朋友","same",""
"","","","","","html-keyboard-response","389","839226","0.0-10.0-0.0-0.0-0.0-1.91","null","<span style='color:red; font-size: 70px;'>错误! </span>","null","","","","","","","","","","","","","","","","","","","","","","","feedback_test"
"","","","","","psychophysics","390","841034","0.0-10.0-0.0-0.0-0.0-0.92","806","","f","","","","","","","","","","","","","key","f","16.69114953271009","622.4999752640734","384.9999847014751","f","true","img/C_ambi40.png","自我","same",""
"","","","","","html-keyboard-response","391","841536","0.0-10.0-0.0-0.0-0.0-1.92","null","<span style='color:GreenYellow; font-size: 70px;'>正确! </span>","null","","","","","","","","","","","","","","","","","","","","","","","feedback_test"
"","","","","","psychophysics","392","843100","0.0-10.0-0.0-0.0-0.0-0.93","562","","j","","","","","","","","","","","","","key","j","16.691247311827567","622.4999752640734","384.9999847014751","j","true","img/S_ambi40.png","朋友","same",""
"","","","","","html-keyboard-response","393","843602","0.0-10.0-0.0-0.0-0.0-1.93","null","<span style='color:GreenYellow; font-size: 70px;'>正确! </span>","null","","","","","","","","","","","","","","","","","","","","","","","feedback_test"
"","","","","","psychophysics","394","845176","0.0-10.0-0.0-0.0-0.0-0.94","570","","f","","","","","","","","","","","","","key","f","16.691397849462867","622.4999752640734","384.9999847014751","j","false","img/C_ambi40.png","生人","same",""
"","","","","","html-keyboard-response","395","845688","0.0-10.0-0.0-0.0-0.0-1.94","null","<span style='color:red; font-size: 70px;'>错误! </span>","null","","","","","","","","","","","","","","","","","","","","","","","feedback_test"
"","","","","","psychophysics","396","847603","0.0-10.0-0.0-0.0-0.0-0.95","912","","j","","","","","","","","","","","","","key","j","16.691096491227334","622.4999752640734","384.9999847014751","j","true","img/C_ambi40.png","生人","same",""
"","","","","","html-keyboard-response","397","848107","0.0-10.0-0.0-0.0-0.0-1.95","null","<span style='color:GreenYellow; font-size: 70px;'>正确! </span>","null","","","","","","","","","","","","","","","","","","","","","","","feedback_test"
"","","","","","psychophysics","398","849877","0.0-10.0-0.0-0.0-0.0-0.96","767","","f","","","","","","","","","","","","","key","f","16.69222857142865","622.4999752640734","384.9999847014751","f","true","img/C_ambi40.png","朋友","same",""
"","","","","","html-keyboard-response","399","850394","0.0-10.0-0.0-0.0-0.0-1.96","null","<span style='color:GreenYellow; font-size: 70px;'>正确! </span>","null","","","","","","","","","","","","","","","","","","","","","","","feedback_test"
"","","","","","psychophysics","400","852727","0.0-10.0-0.0-0.0-0.0-0.97","1331","","f","","","","","","","","","","","","","key","f","16.690582733813223","622.4999752640734","384.9999847014751","f","true","img/S_ambi40.png","生人","same",""
"","","","","","html-keyboard-response","401","853229","0.0-10.0-0.0-0.0-0.0-1.97","null","<span style='color:GreenYellow; font-size: 70px;'>正确! </span>","null","","","","","","","","","","","","","","","","","","","","","","","feedback_test"
"","","","","","psychophysics","402","855015","0.0-10.0-0.0-0.0-0.0-0.98","783","","f","","","","","","","","","","","","","key","f","16.691745283019525","622.4999752640734","384.9999847014751","f","true","img/H_ambi40.png","生人","same",""
"","","","","","html-keyboard-response","403","855518","0.0-10.0-0.0-0.0-0.0-1.98","null","<span style='color:GreenYellow; font-size: 70px;'>正确! </span>","null","","","","","","","","","","","","","","","","","","","","","","","feedback_test"
"","","","","","psychophysics","404","857078","0.0-10.0-0.0-0.0-0.0-0.99","558","","j","","","","","","","","","","","","","key","j","16.692152173912568","622.4999752640734","384.9999847014751","j","true","img/T_ambi40.png","をる","same",""
"","","","","","html-keyboard-response","405","857582","0.0-10.0-0.0-0.0-0.0-1.99","null","<span style='color:GreenYellow; font-size: 70px;'>正确! </span>","null","","","","","","","","","","","","","","","","","","","","","","","feedback_test"
"","","","","","psychophysics","406","859360","0.0-10.0-0.0-0.0-0.0-0.100","776","","j","","","","","","","","","","","","","key","j","16.69050476190501","622.4999752640734","384.9999847014751","j","true","img/H_ambi40.png","自我","same",""
"","","","","","html-keyboard-response","407","859862","0.0-10.0-0.0-0.0-0.0-1.100","null","<span style='color:GreenYellow; font-size: 70px;'>正确! </span>","null","","","","","","","","","","","","","","","","","","","","","","","feedback_test"
"","","","","","psychophysics","408","861620","0.0-10.0-0.0-0.0-0.0-0.101","756","","j","","","","","","","","","","","","","key","j","16.690884615385304","622.4999752640734","384.9999847014751","j","true","img/T_ambi40.png","をる","same",""
"","","","","","html-keyboard-response","409","862123","0.0-10.0-0.0-0.0-0.0-1.101","null","<span style='color:GreenYellow; font-size: 70px;'>正确! </span>","null","","","","","","","","","","","","","","","","","","","","","","","feedback_test"
"","","","","","psychophysics","410","863777","0.0-10.0-0.0-0.0-0.0-0.102","652","","f","","","","","","","","","","","","","key","f","16.690755102040995","622.4999752640734","384.9999847014751","f","true","img/H_ambi40.png","朋友","same",""
"","","","","","html-keyboard-response","411","864293","0.0-10.0-0.0-0.0-0.0-1.102","null","<span style='color:GreenYellow; font-size: 70px;'>正确! </span>","null","","","","","","","","","","","","","","","","","","","","","","","feedback_test"
"","","","","","psychophysics","412","866139","0.0-10.0-0.0-0.0-0.0-0.103","844","","f","","","","","","","","","","","","","key","f","16.69218348623937","622.4999752640734","384.9999847014751","f","true","img/S_ambi40.png","自我","same",""
"","","","","","html-keyboard-response","413","866646","0.0-10.0-0.0-0.0-0.0-1.103","null","<span style='color:GreenYellow; font-size: 70px;'>正确! </span>","null","","","","","","","","","","","","","","","","","","","","","","","feedback_test"
"","","","","","psychophysics","414","868516","0.0-10.0-0.0-0.0-0.0-0.104","867","","f","","","","","","","","","","","","","key","f","16.69088181818158","622.4999752640734","384.9999847014751","f","true","img/C_ambi40.png","朋友","same",""
"","","","","","html-keyboard-response","415","869019","0.0-10.0-0.0-0.0-0.0-1.104","null","<span style='color:GreenYellow; font-size: 70px;'>正确! </span>","null","","","","","","","","","","","","","","","","","","","","","","","feedback_test"
"","","","","","psychophysics","416","870872","0.0-10.0-0.0-0.0-0.0-0.105","851","","f","","","","","","","","","","","","","key","f","16.690409090908624","622.4999752640734","384.9999847014751","f","true","img/H_ambi40.png","生人","same",""
"","","","","","html-keyboard-response","417","871387","0.0-10.0-0.0-0.0-0.0-1.105","null","<span style='color:GreenYellow; font-size: 70px;'>正确! </span>","null","","","","","","","","","","","","","","","","","","","","","","","feedback_test"
"","","","","","psychophysics","418","873446","0.0-10.0-0.0-0.0-0.0-0.106","1058","","j","","","","","","","","","","","","","key","j","16.690319672131483","622.4999752640734","384.9999847014751","f","false","img/S_ambi40.png","自我","same",""
"","","","","","html-keyboard-response","419","873960","0.0-10.0-0.0-0.0-0.0-1.106","null","<span style='color:red; font-size: 70px;'>错误! </span>","null","","","","","","","","","","","","","","","","","","","","","","","feedback_test"
"","","","","","psychophysics","420","875546","0.0-10.0-0.0-0.0-0.0-0.107","584","","j","","","","","","","","","","","","","key","j","16.68677659574376","622.4999752640734","384.9999847014751","j","true","img/T_ambi40.png","をる","same",""
"","","","","","html-keyboard-response","421","876054","0.0-10.0-0.0-0.0-0.0-1.107","null","<span style='color:GreenYellow; font-size: 70px;'>正确! </span>","null","","","","","","","","","","","","","","","","","","","","","","","feedback_test"
